File: experimental_data/220722/s00124_Theta_2-Theta.asc
*TYPE		=  Raw
*CLASS		=  ASCII CLASS
*SAMPLE		=
*COMMENT	=
*FNAME		=  s00124_Theta_2-Theta.asc
*DATE		=  22-Jul-22 10:51

*GROUP_COUNT	=  1
*GONIO		=  SmartLab(In-plane), 0.000000
*ATTACHMENT	=  Z-Phi Stage
*ASC		=  0, 0, 0.000000, 0.000000
*I_MONOCHRO	=  Soller_slit_5.0deg, 0.000000
*FILTER		=  Cu_K-beta
*C_MONOCHRO	=  No_unit, 0.000000
*SLIT_NAME	=  0, Incident slit
*SLIT_NAME	=  1, Receiving slit # 1
*SLIT_NAME	=  2, Receiving slit # 2
*COUNTER	=  HyPix 3000(H), 0
*POS_FORMAT	=  0
*SCAN_AXIS	=  2theta/theta
*MEAS_MODE	=  Continuous Scanning
*TARGET		=  29
*XRAY_CHAR	=  K-ALPHA
*WAVE_LENGTH1	=  1.54059
*WAVE_LENGTH2	=  1.54441
*THICKNESS	=  0, 0.000000
*MU		=  0, 0.000000
*SCAN_MODE	=  2theta/theta
*SPEED_DIM	=  sec./step
*XUNIT		=  deg.
*YUNIT		=  counts
*SCALE_MODE	=  1
*REP_COUNT	=  0
*SE_COUNT	=  0
*STD_MATERIAL	=  Unknown, Unknown, 0.000000, 0.000000, 0.000000, 0.000000, 0.000000, 0.000000
*LATT_CONS	=  0, Unknown, Unknown, 0.000000, 0.000000, 0.000000, 0.000000, 0.000000, 0.000000
*SEC_COUNT	=  1
*TSPEC_SIZE	=  0
*EXTRA_SIZE	=  0
*MEMO		=

*BEGIN
*GROUP		=  0
*START		=  22
*STOP		=  36
*STEP		=  0.01
*OFFSET		=  0.000000
*SPEED		=  0.192275
*SLIT_SPEC	=  0, 1.000deg, 1, 0.000000
*SLIT_SPEC	=  1, 20.000mm, 20, 0.000000
*SLIT_SPEC	=  2, 20.100mm, 20.1, 0.000000
*KV		=  40
*MA		=  44
*LOW		=  0.000000
*HIGH		=  0.000000
*CTEMPER	=  0, 0.000000
*CTEMPER	=  1, 0.000000
*CTEMPER	=  2, 0.000000
*PAREX		=  0, 0.000000
*PAREX		=  1, 0.000000
*PAREX		=  2, 0.000000
*PAREX		=  3, 0.000000
*PAREX		=  4, 0.000000
*PAREX		=  5, 0.000000
*PAREX		=  6, 0.000000
*PAREX		=  7, 0.000000
*PAREX		=  8, 0.000000
*PAREX		=  9, 0.000000
*PAREX		=  10, 0.000000
*PAREX		=  11, 0.000000
*PAREX		=  12, 0.000000
*PAREX		=  13, 0.000000
*PAREX		=  14, 0.000000
*PAREX		=  15, 0.000000
*FULL_SCALE	=  68525.6
*INDEX		=  0, 0, 0
*COUNT		=  1401
8874.36, 8879.15, 8672.56, 8732.45
8945.49, 8864.78, 8820.86, 8698.66
8816.06, 8729.47, 8788.26, 8794.28
8917.11, 8771.76, 8749.28, 8721.22
8815.45, 8844.44, 8779.83, 8683.3
8671.2, 8630.23, 8687.92, 8699.06
8591.9, 8606.05, 8866.98, 8689.88
8557.96, 8700.7, 8657.68, 8890.54
8857.49, 8648.84, 8502.51, 8579.33
8534.96, 8452.79, 8573.37, 8648.92
8644.89, 8559.87, 8553.74, 8717.78
8664.75, 8563.71, 8596.52, 8765.95
8679.18, 8528.36, 8375.99, 8547.19
8467.46, 8556.09, 8602.89, 8535.78
8570.91, 8495.05, 8512.41, 8478.07
8589.2, 8558.26, 8510.86, 8544.08
8591.03, 8570.75, 8706.45, 8516.79
8613.76, 8532.16, 8751.5, 8551.75
8548.02, 8608.01, 8642.1, 8630.43
8562.25, 8471.68, 8437.34, 8632.35
8608, 8706.43, 8431.69, 8555.15
8702.55, 8637.1, 8675.21, 8628.23
8684.19, 8702.86, 8693.44, 8790.22
8767.26, 8927.38, 8986.84, 9068.32
9087.66, 9283.85, 9243.49, 9448.32
9375.45, 9350.51, 9759.36, 9831.75
10133, 10230, 10568.7, 10425.9
10690.8, 10897.9, 10979.8, 10916.5
10970.4, 10552.7, 10443.6, 10236.9
10149.7, 9781.94, 9722.97, 9412.17
9152.98, 9112.21, 8884.97, 8995.06
8890.24, 8883.75, 8718.26, 8782.44
8730.6, 8731.91, 8589.2, 8593.64
8581.97, 8455.85, 8554.48, 8542.08
8614.96, 8544.41, 8744.84, 8765.16
8686.32, 8612.55, 8805.11, 8666.24
8844.38, 8920.87, 8891.27, 9011.48
9125.52, 9225.27, 9276, 9425.04
9603.23, 9797.44, 9904.64, 10130.1
10070.4, 10299.6, 10311.9, 10101.7
9988.18, 10031.6, 9866.76, 9560.14
9466.38, 9358.09, 9153.63, 8770.46
8819.84, 8633.57, 8559.65, 8483.14
8497.78, 8305.49, 8436.31, 8309.03
8232.35, 8134.76, 8237.14, 8156.06
8217.16, 8034.45, 8228.57, 8092.87
8146.47, 8272.42, 8106.2, 7981.72
8027.35, 7942.35, 7997.04, 8057.13
7966.21, 7931.95, 7839.91, 8014.91
8170.67, 8038.98, 8019.13, 7915.12
7940.11, 8028.01, 8060.14, 7917.63
7893.36, 7967.61, 8096.3, 8100.29
7892.84, 8057.21, 8015.04, 8100.1
8157.69, 8105.42, 8249.94, 8154.31
8135.55, 8341.7, 8173.01, 8475.74
8645.91, 8490.83, 8639.84, 8712.18
8800.48, 8831.36, 9103.29, 9302.95
9333.7, 9500.13, 9685.67, 9685.46
9972.89, 10293.6, 10465.1, 10564.7
10526.4, 10406.6, 10397.5, 10073.7
9939.64, 9591.9, 9319.47, 9139.7
8860.54, 8879.08, 8440.13, 8365.59
8204.29, 8216.36, 8068.42, 7810.88
7690.04, 7864.56, 7765.99, 7803.02
7830.55, 7570.3, 7598.51, 7590.98
7637.08, 7576.72, 7638.87, 7472.24
7491.01, 7561.14, 7467.67, 7634.79
7619.15, 7493.55, 7527.78, 7488.49
7399.06, 7299.08, 7223.66, 7525.24
7505.61, 7502.76, 7527.62, 7403.49
7379.03, 7426.4, 7353.95, 7226.74
7309.91, 7305.75, 7450.68, 7333.24
7505.04, 7369.57, 7464.49, 7496.97
7446.1, 7364.9, 7436.82, 7390.01
7305.59, 7344.1, 7335.18, 7341.8
7323.75, 7351.64, 7338.97, 7272.2
7130.86, 7274.1, 7243.42, 7357.14
7394.24, 7292.38, 7222.23, 7088.84
7150.01, 7161.29, 7196.47, 7280.54
7121.08, 7233.9, 7298.23, 7304.87
7211.62, 7070.97, 7211.17, 7145.5
7046.25, 7129.81, 7010.39, 6997.6
7216.68, 7059.56, 7044.69, 7141.01
7136.16, 7021.84, 7080.59, 7204.42
7131.68, 7194.5, 7087.11, 7066.42
7169.92, 7029.33, 7008.02, 7076.64
7107.64, 6981.18, 6996.16, 6959.98
7070.92, 6855.28, 6928.65, 6869.93
6948.96, 6968.46, 6841.84, 6865.49
6934.06, 7090.75, 6948.05, 6958.64
7070.31, 6955.1, 7015.35, 6940.33
6716.55, 7022.2, 6917.68, 6853.38
6873.94, 6910.72, 7048.73, 7077.44
7061.39, 6852.87, 6804.52, 6882.32
6843.54, 6804.45, 6921.09, 6939.89
6913.1, 6848.14, 6896.36, 6871.58
6846.23, 6678.75, 6800.23, 6810.51
6771.02, 6720.49, 6803.47, 6768.01
6925.96, 6771.93, 6857.59, 6783.77
6710.22, 6819.13, 6793.67, 6758.02
6781.84, 6927.22, 6814.68, 6777.27
6676.27, 6714.1, 6724.59, 6772.83
6696.15, 6601.33, 6736.44, 6728.91
6768.55, 6810.99, 6650.93, 6597.64
6695.7, 6687.91, 6574.96, 6554.49
6759.86, 6553.56, 6681.25, 6562.31
6691.01, 6660.12, 6521.98, 6635.48
6710.77, 6696.68, 6694.09, 6673.37
6523.88, 6568.9, 6631.53, 6709.69
6589.25, 6584.77, 6532.84, 6574.77
6583.23, 6666.7, 6634.19, 6641.77
6578.79, 6592.29, 6597.43, 6750.79
6684.05, 6672.67, 6566.92, 6715.7
6714.33, 6756.75, 6793.08, 6724.8
6965.23, 6852.56, 6858.38, 6825.86
6931.23, 6789.72, 6804.45, 6690.81
6878.05, 6665.5, 6656.39, 6758.65
6578.21, 6614.33, 6662.53, 6540.83
6493.52, 6401.13, 6378.86, 6460.99
6347.45, 6476.68, 6431.71, 6576.61
6507.59, 6484.91, 6455.59, 6416.84
6431.7, 6185.93, 6281.61, 6408.57
6390.44, 6359.75, 6326.41, 6367.12
6317.69, 6286.78, 6314.31, 6303.17
6159.64, 6228.07, 6219.82, 6181.6
6211.21, 6266.53, 6291.6, 6279.18
6243.68, 6356.61, 6395.86, 6219.01
6285.17, 6206.83, 6310.82, 6250.03
6184.52, 6274.55, 6257.25, 6142.89
6292.85, 6239.02, 6350.99, 6190.1
6184.18, 6131.19, 6092.28, 6260.94
6197.38, 6256.18, 6214.74, 6178.98
6276.13, 6181.78, 6227.61, 6145.03
6018.11, 6180.96, 6091.52, 6064.71
6212.61, 6160.37, 6070.88, 6077.93
6214.04, 6151.41, 6144.36, 5984.55
6180.73, 6162.67, 6021.67, 6177.21
6089.22, 6085.14, 6119.98, 6082.27
6259.73, 6075.15, 6052.75, 6034.93
6064.11, 6121.43, 6080.26, 6032.1
6034.31, 6070.87, 5965.67, 6110.7
5953.12, 5973.81, 6132.14, 6070.51
5913.25, 6027.49, 6053.51, 6038.97
6065.25, 5880.76, 5927.69, 5918.7
6059.36, 5988.01, 6121.89, 6076.77
5913.94, 5948.53, 5913.23, 5911.03
5895.4, 5947.95, 5900.71, 5957.3
5951.59, 5981.73, 5844.66, 5787.17
6005.24, 5986.49, 5971.99, 5872.56
5891.71, 5902.81, 5869.19, 5703.54
5935.33, 5827.61, 5894.7, 5953.31
5898.41, 5926.94, 5851.27, 5934.49
5960, 6022.22, 5819.49, 5791.21
5915.68, 5902.35, 5794.01, 5695.82
5809.49, 5793.77, 5712.47, 5737.29
5745.35, 5931.32, 5825.66, 5879.45
5813.6, 5791.6, 5716.84, 5716.35
5886.07, 5848.84, 5839.75, 5911.67
5745.11, 5853.1, 5872.1, 5840.76
5854.29, 5793.66, 5762.07, 5712.79
5748.93, 5883.3, 5877.05, 5868.72
5876.79, 5802.79, 5708.49, 5734.95
5848.39, 5795.94, 5807.91, 5768.13
5912.31, 5911.39, 5912.56, 5750.37
5891.12, 5754.41, 5878.84, 5898.79
5995.2, 6007.83, 5953.07, 5907.18
5955.05, 6009.13, 5958.71, 6005.18
5997.7, 5873.67, 5984.32, 5982.09
5844.49, 5947.6, 5922.36, 5900.75
5903.39, 5856.72, 5926.1, 5945.3
6103.86, 6111.39, 6007.06, 6006.36
5973.83, 5908.19, 6067.88, 5961.26
5981.13, 6017.59, 5945.91, 6024.72
5946.48, 5985.71, 5963.24, 5834.81
5842.43, 5854.56, 5820.75, 5805.1
5803.93, 5742.54, 5808.68, 5663.64
5678.9, 5585.91, 5634.95, 5687.19
5551.9, 5715.07, 5676.97, 5666.13
5476.09, 5639.6, 5549.46, 5678.46
5497.63, 5537.14, 5457.02, 5384.76
5416.62, 5545.01, 5566.95, 5579.86
5382.79, 5432.76, 5502.6, 5473.35
5424.3, 5394.96, 5386.81, 5517.01
5508.43, 5435.7, 5425.05, 5474.09
5519.2, 5503.7, 5433.8, 5529.17
5476.68, 5526.8, 5536.8, 5350.81
5362.11, 5404.65, 5461.89, 5438.44
5310.47, 5335.52, 5405.48, 5372.99
5316.9, 5396.64, 5378.94, 5258.82
5485.67, 5507.59, 5471.14, 5361.69
5377.88, 5411.73, 5425.71, 5326.76
5334.34, 5343.77, 5341.1, 5299.62
5331.7, 5350.72, 5407.95, 5301.4
5297.83, 5216.63, 5288.65, 5430.86
5242.48, 5315.74, 5274.29, 5317.38
5361.05, 5212.38, 5361.66, 5396.01
5317.07, 5339.1, 5239.71, 5220.17
5298.38, 5256.27, 5294.96, 5350.62
5247.88, 5276.9, 5224.21, 5314.02
5287.51, 5349.14, 5245, 5288.87
5260.57, 5414.89, 5325.52, 5319.37
5163.76, 5221.31, 5147.55, 5250.57
5275.97, 5282.78, 5253.06, 5259.34
5250.83, 5274.97, 5297.96, 5161.58
5178.25, 5183.69, 5199.4, 5084.58
5064.65, 5191.85, 5105.62, 5131.51
5114.81, 5127.8, 5115.39, 5170.08
5245.44, 5123.95, 5129.96, 5070.86
5247.52, 5267.61, 5274.05, 5199.8
5164.14, 5090.8, 5092.29, 5164.14
5124.75, 5082.23, 5164.87, 5047.72
5080.31, 5106.88, 5135.04, 5247.82
5090.61, 5015.32, 5102.59, 5071.21
5079.74, 5076.37, 5093.65, 5022.26
5067.15, 5101.86, 5082.22, 5067.56
5036.24, 5086.34, 4975.81, 4973.97
4990.71, 5137.2, 5170.08, 5093.54
5080.49, 5040.56, 5109.55, 5035.5
4972.81, 4996.02, 4984.96, 4989.96
5045.09, 4959.02, 5147.58, 4985.98
5029.97, 5024.64, 5024.13, 4833.78
5027.84, 4838.55, 5002.76, 5084.85
4916.08, 4976.03, 5044.78, 4896.78
4906.65, 5050.33, 5000.2, 5014.3
5022.72, 5018.22, 5010.32, 4928.93
4974.37, 4804.61, 4872.1, 4799.91
5024.69, 4976.23, 4962.13, 4999.34
4883.36, 4958.66, 4967.6, 4905.7
4854.97, 4911.01, 4912.32, 4881.77
4884.54, 4950.29, 4824.79, 4892.06
4862.99, 4865.49, 5095.55, 4899.44
4877.84, 4895.5, 4908.16, 4899.4
4934.29, 4857, 4847.56, 4822.68
4958.79, 4928.91, 5122.71, 4944.39
4863.54, 4942.1, 4828.48, 4906.13
4836.64, 4915.91, 4858.82, 4939.74
4783.66, 4871.57, 4918.19, 4820.44
4911.81, 4874.19, 4733.79, 4831.34
4907.56, 4843.68, 4900.13, 4792.84
4796.5, 4819.88, 4726.67, 4728.72
4779.33, 4897.05, 4827.41, 4817.96
4842.29, 4771.71, 4749.51, 4802.84
4741.58, 4698.11, 4741.61, 4790.98
4745.8, 4860.58, 4727.2, 4801.55
4698.07, 4772.27, 4834.14, 4815.08
4829.57, 4732, 4805.84, 4794.61
4847.87, 4756.09, 4728.97, 4655.19
4684.61, 4636.5, 4771.92, 4756.43
4584, 4685.23, 4781.61, 4677.31
4743.3, 4684.41, 4759.58, 4737.52
4666.29, 4699.01, 4780.63, 4699.28
4701.54, 4709.96, 4702.08, 4737.18
4692.42, 4694.21, 4672.25, 4697.57
4712.44, 4749.8, 4673.54, 4702.14
4609.33, 4741.6, 4665.1, 4643.19
4737.92, 4854.86, 4754.07, 4650.92
4749.92, 4666.1, 4654.54, 4629.42
4657.85, 4612.25, 4675.81, 4626.8
4450.72, 4526.99, 4732.04, 4633.33
4598.04, 4705.16, 4567.13, 4646.06
4630.73, 4744.31, 4653.14, 4657.02
4670.02, 4684.7, 4519.14, 4561.16
4584.1, 4542.88, 4600.49, 4533.84
4552.93, 4617.97, 4498.08, 4650.6
4616.04, 4735.11, 4593.63, 4674.89
4605.83, 4540.7, 4534.32, 4631.51
4590.07, 4497.87, 4613.01, 4600.53
4580.41, 4632.96, 4534.24, 4478.32
4543.7, 4559.5, 4525.59, 4608.49
4646.27, 4503.01, 4487.93, 4511.4
4538.24, 4548.57, 4590.5, 4591.19
4529.27, 4533.91, 4574.2, 4496.85
4503.32, 4604.65, 4414.75, 4673.04
4608.05, 4540.18, 4515.63, 4532.72
4536.91, 4612.08, 4670.81, 4540.01
4626.48, 4657.49, 4668.28, 4550.58
4586.56, 4704.48, 4743.88, 4668.66
4656.53, 4673.16, 4666, 4729.42
4845.3, 4882.27, 4851.35, 4790.03
4962.45, 4952.05, 4988.91, 5061.34
5078.98, 5269.83, 5210.45, 5361.43
5375.9, 5408.27, 5384.2, 5384.7
5173.62, 5151.89, 5136.77, 5079.31
5127.47, 5013.35, 5014.62, 5017.98
4987.41, 4850.8, 4911.4, 4760.15
4824.54, 4748.08, 4797.73, 4710.48
4738.25, 4601.18, 4676.71, 4658.77
4754.78, 4628.88, 4781.12, 4691.98
4692.32, 4712.21, 4764.07, 4597.85
4589.14, 4707.96, 4634.75, 4641.58
4651.74, 4611.07, 4672.23, 4744.67
4578.9, 4684.49, 4586.96, 4666.83
4648.18, 4592.43, 4628.81, 4717.95
4648.28, 4674.47, 4674.22, 4678.62
4652.01, 4653.18, 4610.33, 4631.94
4643.52, 4609.57, 4665.91, 4678.59
4616.78, 4694.61, 4694.98, 4642.41
4745.18, 4684.86, 4828.27, 4682.73
4648.04, 4823.41, 4869.9, 4926.28
4823.8, 4921.57, 4820.54, 4866.39
5148.06, 4976.37, 5073.49, 5249.63
5153.44, 5431.7, 5296.63, 5439.69
5359.76, 5594.67, 5584.89, 5651.87
5780.28, 5805.22, 5854.86, 5810.99
5796.63, 5684.07, 5738.59, 5433.28
5416.9, 5436.78, 5329.34, 5230.95
5111.57, 5055.3, 4960.84, 4900.65
4697.59, 4650.09, 4644.7, 4570.55
4459.78, 4567.96, 4479.46, 4416.81
4398.31, 4400.93, 4432.22, 4379.92
4399.15, 4362.14, 4329, 4393.56
4264.24, 4317.66, 4190.42, 4273.18
4300.57, 4214.88, 4255.4, 4235.04
4269.73, 4192.52, 4282.98, 4298.91
4207.36, 4185.79, 4251.01, 4215.44
4237.03, 4175.77, 4179.6, 4113.62
4247.76, 4241.29, 4152.39, 4190.54
4204.5, 4279.6, 4278.05, 4211.4
4176.89, 4109.43, 4215.54, 4211.31
4205.58, 4238.2, 4184.31, 4101.72
4160.54, 4148.99, 4115.74, 4183.26
4233.08, 4122.8, 4134.91, 4136.22
4073.11, 4140.83, 4191.12, 4136.05
4247.03, 4179.69, 4241.84, 4177.78
4133.59, 4119.79, 4098.15, 4091.36
4178.62, 4146.96, 4201, 4195.24
4163.85, 4121.93, 4032.67, 4129.61
4133.57, 4111.43, 4046.5, 4030.51
4074.1, 4054.86, 4007.73, 4193.56
4125.48, 4046.97, 4122.9, 4090.49
4046.27, 4126.15, 4087.22, 4035.24
4194.78, 4148.39, 4102.63, 4054.39
4072.36, 4062.52, 4057.1, 4150.92
4135.77, 4095.14, 4204.76, 4080.73
4147.97, 4181.08, 4177.78, 4246.18
4131.84, 4049.21, 4205.77, 4013.69
4093.05, 4159.36, 4192.99, 4129.61
4102.35, 4227.52, 4135.59, 4181.97
4153.27, 4179.95, 4150.98, 4127.22
4202.41, 4301.27, 4178.54, 4176.5
4187.12, 4177.49, 4211.4, 4176.55
4216.9, 4149.12, 4046.03, 4119.45
4075.83, 4110.94, 4184.67, 4142.73
4052.9, 4029.9, 4078.91, 4099.16
3979.67, 4125.01, 4083.59, 4082.38
4033.18, 4008.1, 4023.02, 3899.3
3928.38, 3936.61, 4017.51, 3919.9
4019.93, 3976.6, 3945.88, 3947.38
3965.63, 3961.65, 3975.82, 3912
4007.15, 4009.83, 3871.57, 3932.17
3942.3
*END

*EOF