File: experimental_data/220722/s00132_Theta_2-Theta.asc
*TYPE		=  Raw
*CLASS		=  ASCII CLASS
*SAMPLE		=
*COMMENT	=
*FNAME		=  s00132_Theta_2-Theta.asc
*DATE		=  22-Jul-22 10:22

*GROUP_COUNT	=  1
*GONIO		=  SmartLab(In-plane), 0.000000
*ATTACHMENT	=  Z-Phi Stage
*ASC		=  0, 0, 0.000000, 0.000000
*I_MONOCHRO	=  Soller_slit_5.0deg, 0.000000
*FILTER		=  Cu_K-beta
*C_MONOCHRO	=  No_unit, 0.000000
*SLIT_NAME	=  0, Incident slit
*SLIT_NAME	=  1, Receiving slit # 1
*SLIT_NAME	=  2, Receiving slit # 2
*COUNTER	=  HyPix 3000(H), 0
*POS_FORMAT	=  0
*SCAN_AXIS	=  2theta/theta
*MEAS_MODE	=  Continuous Scanning
*TARGET		=  29
*XRAY_CHAR	=  K-ALPHA
*WAVE_LENGTH1	=  1.54059
*WAVE_LENGTH2	=  1.54441
*THICKNESS	=  0, 0.000000
*MU		=  0, 0.000000
*SCAN_MODE	=  2theta/theta
*SPEED_DIM	=  sec./step
*XUNIT		=  deg.
*YUNIT		=  counts
*SCALE_MODE	=  1
*REP_COUNT	=  0
*SE_COUNT	=  0
*STD_MATERIAL	=  Unknown, Unknown, 0.000000, 0.000000, 0.000000, 0.000000, 0.000000, 0.000000
*LATT_CONS	=  0, Unknown, Unknown, 0.000000, 0.000000, 0.000000, 0.000000, 0.000000, 0.000000
*SEC_COUNT	=  1
*TSPEC_SIZE	=  0
*EXTRA_SIZE	=  0
*MEMO		=

*BEGIN
*GROUP		=  0
*START		=  22
*STOP		=  36
*STEP		=  0.01
*OFFSET		=  0.000000
*SPEED		=  0.192275
*SLIT_SPEC	=  0, 1.000deg, 1, 0.000000
*SLIT_SPEC	=  1, 20.000mm, 20, 0.000000
*SLIT_SPEC	=  2, 20.100mm, 20.1, 0.000000
*KV		=  40
*MA		=  44
*LOW		=  0.000000
*HIGH		=  0.000000
*CTEMPER	=  0, 0.000000
*CTEMPER	=  1, 0.000000
*CTEMPER	=  2, 0.000000
*PAREX		=  0, 0.000000
*PAREX		=  1, 0.000000
*PAREX		=  2, 0.000000
*PAREX		=  3, 0.000000
*PAREX		=  4, 0.000000
*PAREX		=  5, 0.000000
*PAREX		=  6, 0.000000
*PAREX		=  7, 0.000000
*PAREX		=  8, 0.000000
*PAREX		=  9, 0.000000
*PAREX		=  10, 0.000000
*PAREX		=  11, 0.000000
*PAREX		=  12, 0.000000
*PAREX		=  13, 0.000000
*PAREX		=  14, 0.000000
*PAREX		=  15, 0.000000
*FULL_SCALE	=  67443.7
*INDEX		=  0, 0, 0
*COUNT		=  1401
8278.6, 8400.74, 8278.16, 8264.38
8292.97, 8304.53, 8102.98, 8226.02
8230.15, 8091.56, 8357.17, 8242.54
8391.23, 8245.17, 8239.63, 8191.26
8132.32, 8203.49, 8166.2, 8178.04
8122.35, 8255.65, 8287.23, 8240.9
8060.84, 8092.25, 8218.44, 8132.33
8201.71, 8148.37, 8182.43, 8024.43
8108.29, 8098.95, 8071.79, 8251
8154.18, 8076.6, 8128.95, 8054.68
8125.67, 8137.7, 8093.01, 8097.6
8269.51, 8282.87, 7989.44, 8125.58
8212.33, 8063.8, 8061.78, 8101.96
8118.02, 8119.19, 8139.55, 7940.77
7882.03, 8181.73, 7981.35, 8087.31
8033.28, 8054.17, 8112.12, 8077.74
7981.69, 8060.3, 8081.13, 7920.51
7898.34, 7945.03, 7995.29, 8070.12
7915.08, 8021.23, 8080.76, 7879.51
7901.4, 8029.55, 7987.79, 8048.23
8150.65, 8064.58, 8095.5, 8048.28
8200.42, 8189.81, 8103.24, 8143.6
8186.14, 8230.19, 8219.18, 8360.94
8419.18, 8281.52, 8374.84, 8451.72
8470.2, 8652.25, 8656.3, 8672.73
8906.6, 8970.29, 9221.76, 9258.92
9456.37, 9665.11, 9842.22, 10304.2
10427.2, 10768.2, 10806.4, 10743.2
10643.2, 10486, 10220, 10127.3
9912.54, 9700.74, 9339.4, 9205.33
9025.78, 8887.13, 8595.1, 8557.91
8470.05, 8388.28, 8413.71, 8112.7
8320.59, 8185.34, 8232.43, 8152.69
8070.71, 8181.83, 8162.25, 8164.32
8183.14, 8190.01, 8268.39, 8247.04
8155.68, 8155.55, 8306.19, 8352.94
8372.87, 8394.61, 8410.73, 8693.41
8588.07, 8876.88, 8823.44, 9074.98
9325.67, 9626.97, 9635.37, 9715.57
9960.63, 10205.4, 10270.3, 10132
10105.6, 9863.76, 9663.43, 9580.55
9298.75, 9068.11, 8833.89, 8664.12
8298.65, 8354.83, 8267.62, 8250.71
8168.82, 8142.75, 7861.15, 7872.25
7827.42, 7690.41, 7644.46, 7726.67
7723.17, 7711.57, 7624.18, 7696.55
7579.06, 7558.06, 7562.51, 7542.96
7598.33, 7611.26, 7559.53, 7736.44
7515.58, 7483.05, 7672.88, 7509.75
7515.97, 7484.71, 7535.87, 7571.26
7562.91, 7700.82, 7663.47, 7566.21
7476.23, 7536.71, 7514.39, 7472.99
7558.23, 7536.48, 7694.56, 7581.03
7800.21, 7654.4, 7812.32, 7751.7
7807.37, 7830.57, 7943.7, 7956.07
8084.44, 8084.22, 8125.21, 8120.4
8253.47, 8446.67, 8694.71, 8817.58
9024.25, 9100.26, 9365.5, 9624.57
9811.78, 10134.5, 10219.4, 10249.4
10301, 10295, 10069.8, 9899.11
9639.92, 9495.65, 9163.57, 8888.58
8709.89, 8339.12, 8257.26, 7929.63
7874.2, 7650.8, 7476.2, 7356.04
7346.95, 7453.69, 7253.07, 7304.68
7302.35, 7343.89, 7212.65, 7214.84
7347.87, 7317.15, 7196.38, 7205.35
7072.19, 7144.7, 7264.07, 7183.14
7041.08, 7235.52, 7101.05, 7121.91
7058.02, 6970.35, 7183.33, 7112.04
7067.88, 7030.16, 6979.91, 7019.93
6966.56, 6934.34, 6955.53, 7015.82
7078.59, 7047.33, 7034.15, 7085.17
7033.56, 6827.93, 6947.27, 6983.48
6854.48, 7030.84, 6922.59, 6911.74
7033.1, 6889.89, 6812.23, 6904.58
6867.89, 6852.63, 7050.19, 6840.16
6848.43, 6850.42, 6860.33, 6882.32
6871.18, 6831.67, 6933.66, 6887.1
6928.23, 6839.58, 6781.01, 6802.75
6771.11, 6769.91, 6722.49, 6688.26
6791.67, 6765.66, 6748.45, 6868.32
6798.26, 6738.82, 6777.23, 6563.47
6760.74, 6869.08, 6742.21, 6656.16
6671.81, 6735.22, 6668.81, 6596.92
6678.58, 6695.3, 6663.4, 6512.56
6707.95, 6752.06, 6651.68, 6641.73
6613.35, 6633.9, 6604.79, 6506.31
6549.52, 6591.17, 6691.73, 6655.84
6535.05, 6607.1, 6629.54, 6613.77
6419.48, 6632.04, 6674.5, 6542.46
6487.44, 6536, 6637.03, 6547.77
6551.69, 6571.34, 6620.8, 6591.37
6684.3, 6548.91, 6587.75, 6501.57
6480.62, 6549.39, 6559.05, 6556.79
6588.18, 6566.6, 6601.76, 6558.75
6582.65, 6545.86, 6556.62, 6484.49
6519.85, 6447.2, 6483.81, 6470.11
6453.74, 6401.22, 6442.44, 6443.28
6545.34, 6412.88, 6523, 6458.51
6633.97, 6647.22, 6448.35, 6367.88
6394.32, 6349.56, 6488.83, 6466.71
6483.59, 6452.65, 6432.84, 6590.27
6520.24, 6420.65, 6461.91, 6442.94
6440.38, 6450, 6425.67, 6414.76
6483.93, 6545.45, 6459.99, 6299.62
6415.16, 6549.82, 6434.05, 6407.94
6376.8, 6393.69, 6372.73, 6464.69
6563.81, 6432.53, 6489.09, 6474.9
6408.97, 6431.47, 6438.41, 6496.99
6237.85, 6352.15, 6497.59, 6539.93
6518.35, 6479.96, 6358.36, 6481.48
6560.03, 6595.74, 6667.25, 6690.67
6632.04, 6696.88, 6695.68, 6760.15
6936.13, 6751.11, 6826.18, 6927.92
7037.58, 6900.65, 7035.85, 6976.63
6795.88, 6739.8, 6782.82, 6778.82
6678.45, 6616.22, 6503.77, 6522.02
6588.71, 6614.17, 6529.29, 6396.12
6453.99, 6445.35, 6320.37, 6306.86
6210.19, 6289.61, 6310.44, 6368.21
6249.86, 6118.27, 6128.64, 6192.86
6134.16, 6167.03, 6090.14, 6055.87
6234.32, 6199.28, 6137.35, 5972.41
6018.71, 6169.3, 6165.81, 6031.63
5949.23, 5934.21, 6145.4, 5928.22
6040.72, 6169.4, 5989.82, 5994.2
6052.69, 6046.72, 5865.56, 5881.96
6010.85, 5926.63, 5936.41, 5814.29
5884.62, 5859.82, 5974.12, 6024.99
5997.59, 5863.39, 5811, 5883.98
5931.85, 5951.08, 5996.21, 5958.42
5995.85, 5991.35, 5867.83, 5926.33
5941.12, 5850.02, 5745.49, 5812.13
5904.11, 5830.13, 5860.77, 5883.13
5867.1, 5916.48, 5904.4, 5853.55
5949.59, 5820.7, 5760.09, 5865.75
5721.72, 5710.99, 5762.95, 5724.84
5662.36, 5702.96, 5696.17, 5674.04
5759.35, 5756.6, 5742.26, 5733.44
5693.72, 5625.95, 5628.89, 5662.22
5680.73, 5762.86, 5726.87, 5836.29
5770.54, 5820.52, 5696.4, 5578.93
5804.42, 5848.09, 5732.55, 5771.23
5828.95, 5815.4, 5658.58, 5656.64
5623.86, 5665.78, 5593.01, 5654.2
5613.86, 5498.32, 5700.96, 5579.17
5604.59, 5637.47, 5722.26, 5608.9
5620.97, 5523.17, 5488.92, 5574.36
5537.26, 5761.73, 5641.37, 5630.02
5638.33, 5787.03, 5592.08, 5545.72
5709.53, 5594.66, 5677.33, 5614.4
5524.61, 5524.1, 5632.38, 5548.45
5465.51, 5584.55, 5553.21, 5550.81
5516.74, 5488.71, 5473.64, 5538.46
5474.52, 5540.56, 5515.67, 5544.94
5477.45, 5478.81, 5494.99, 5478.64
5466.57, 5607.59, 5400.62, 5414.26
5667.31, 5468.02, 5467.46, 5624.12
5449.28, 5431.69, 5365.59, 5521.25
5390.02, 5473.34, 5542.77, 5606.57
5467.3, 5543.91, 5557.21, 5431.34
5530.44, 5536.68, 5503.23, 5440.04
5442.85, 5608.46, 5493.23, 5411.7
5555.95, 5641.29, 5580.97, 5598.96
5593.39, 5610.4, 5515.74, 5532.87
5557.34, 5587.07, 5573.79, 5684.79
5737.1, 5666.27, 5564.15, 5620.19
5679.4, 5660.74, 5620.1, 5714.18
5740.24, 5647.65, 5706.09, 5598.96
5807.23, 5616.75, 5727.38, 5762.94
5630.6, 5744.4, 5599.24, 5604.4
5872.56, 5733.93, 5745.59, 5655.56
5631.88, 5647.48, 5753.18, 5720.22
5773.13, 5647.17, 5742.45, 5611.01
5633.05, 5641.03, 5573.6, 5512
5544.52, 5541.99, 5462.05, 5401.28
5442.11, 5337.6, 5398.42, 5345.38
5453.51, 5320.29, 5280.26, 5341.79
5269.41, 5226.66, 5308.51, 5211.83
5148.39, 5234.04, 5243.86, 5173.47
5178.75, 5178.55, 5203.52, 5138.15
5200.14, 5243.52, 5105.59, 5149.38
5165.96, 5219.25, 5322.68, 5152.18
5105.67, 5192.02, 5150.23, 5287.33
5229.77, 5117.41, 5136.5, 5107.61
5160.98, 5039.11, 4991.73, 5079.9
5181.15, 5124.85, 5100.92, 5060.48
4989.36, 5125.49, 5070.73, 5120.3
5046.09, 5006.44, 5168.84, 5052.33
5125.18, 5102.88, 5055.58, 5043.22
5039.04, 5144.26, 5019.37, 5040.92
5020.46, 5010.9, 5113.06, 5133.15
4966.51, 4925.83, 5111.65, 5017.48
5048.46, 4994.31, 4985.77, 4997.67
5004.58, 5006.61, 4933.04, 5058.39
4985.16, 5059.12, 5020.16, 4894.71
4927.98, 4952.56, 5004.38, 5129.62
4998.5, 5049.6, 5164.56, 5088.05
4998.85, 4911.7, 4923.14, 4979.82
4867.66, 4944.91, 4913.06, 5006.6
4875.6, 4933.76, 4979.21, 5013.13
5062.87, 5022.81, 4851.65, 4890.58
4962.07, 4906.88, 4914.75, 4943.51
4867.36, 5043.17, 4974.66, 4915.06
4830.51, 4936.09, 4894.15, 4780.11
4926.87, 4866.2, 4871.94, 4914.81
4795.16, 4822.37, 4907.95, 4882.42
4931.16, 4729.42, 4930.51, 4815.43
4754.26, 4820.71, 4851.9, 4824.17
4866.55, 4923.1, 4909.89, 4848.91
4767.22, 4797.16, 4846.8, 4884.41
4942.03, 4910.98, 4864.24, 4798.34
4710.47, 4934.23, 4825.98, 4751.96
4845.14, 4798.53, 4826.02, 4722.96
4767.74, 4823.13, 4853.7, 4751.83
4776.38, 4834.8, 4838.53, 4745.66
4854, 4760.28, 4810.11, 4720.95
4781.31, 4774.17, 4727.53, 4803.53
4786.36, 4702.56, 4625.62, 4665.25
4779.56, 4761.44, 4754.39, 4612.06
4673.68, 4710.2, 4806.94, 4655.96
4641.15, 4748.43, 4641.82, 4731.24
4751.84, 4691.02, 4596.62, 4693.18
4710.52, 4729.6, 4725.95, 4698.15
4580.79, 4812.61, 4724.84, 4841.5
4685.2, 4726.23, 4681.23, 4498.7
4608.58, 4549.16, 4594.98, 4728.3
4703.76, 4681.15, 4622.32, 4705.9
4634.15, 4633.72, 4625.24, 4687.19
4581.57, 4633.55, 4658.15, 4473.47
4631.36, 4729.47, 4636.97, 4636.03
4700.07, 4654.11, 4624.59, 4601.08
4641.45, 4661.76, 4562.99, 4589.4
4508.64, 4610.33, 4559.75, 4709.5
4560.44, 4621.3, 4523.74, 4609.22
4597.79, 4545.61, 4689.83, 4564.9
4545.35, 4603.93, 4420.35, 4518.44
4537.57, 4406.33, 4499.72, 4578.14
4452.37, 4644.33, 4632.18, 4521.08
4536.5, 4490.26, 4605.55, 4529.84
4507.79, 4592.15, 4504.64, 4580.94
4448.08, 4535.79, 4570.06, 4613.22
4569.51, 4510.08, 4442.11, 4678.87
4587.7, 4532.54, 4536.22, 4559.88
4510.48, 4450.02, 4502.98, 4444.19
4424.72, 4437.7, 4572.4, 4593.94
4483.09, 4378.37, 4547.08, 4512.26
4371.19, 4472.84, 4431.78, 4428.51
4450.54, 4369.18, 4349.04, 4385.47
4439.39, 4530.8, 4610.63, 4412
4422.51, 4533.82, 4407.99, 4549.71
4388.28, 4451.21, 4414.27, 4426.58
4420.74, 4436.1, 4372.2, 4410.73
4512.38, 4358.43, 4358.16, 4362.09
4422.08, 4509.46, 4440.72, 4366.7
4483.1, 4324.7, 4413.69, 4343.05
4377.74, 4397.24, 4480.12, 4461.75
4407.26, 4448.96, 4407.13, 4439.33
4416.44, 4366.22, 4342.72, 4461.66
4469.92, 4508.73, 4441.35, 4325.25
4368.13, 4357.37, 4322.7, 4341.24
4497.99, 4292.58, 4330.48, 4284.8
4318.95, 4462.66, 4320.08, 4399.39
4349.26, 4296.78, 4254.11, 4317.67
4276.01, 4303.27, 4461.96, 4445.24
4375.05, 4307.85, 4248.03, 4375.12
4347.91, 4253.4, 4424.5, 4378.71
4402.2, 4285.31, 4325.92, 4350.02
4296.59, 4215.87, 4333.65, 4294.04
4311.45, 4305.91, 4224.1, 4171.13
4270.02, 4284.71, 4267.94, 4282
4277.49, 4310.46, 4379.57, 4318.36
4298.08, 4374.5, 4458.83, 4351.64
4397.48, 4297.81, 4425.34, 4273.5
4294.3, 4379.24, 4365.6, 4326.53
4407.07, 4427.09, 4380.39, 4351.01
4456.96, 4342.45, 4354.96, 4433.9
4419.84, 4408.6, 4434.46, 4546.38
4519.41, 4483.88, 4665.21, 4667.09
4637.22, 4745.79, 4895.07, 4842.73
4968.98, 5077.32, 5176.83, 5234.9
5299.14, 5391.22, 5367.17, 5322.38
5190.55, 5159.07, 4988.92, 5049.06
5010.04, 4921.18, 4800.56, 4804.76
4757.89, 4760.28, 4756.85, 4608.86
4553.93, 4579.2, 4567.56, 4524.52
4556.49, 4356.03, 4606.21, 4423.45
4445.7, 4570.3, 4573.58, 4577.46
4440.71, 4455.39, 4547.64, 4497.64
4532.34, 4521.6, 4463.91, 4456.92
4459.63, 4475.14, 4539.53, 4541.87
4471.32, 4460.46, 4557.54, 4578.91
4580.22, 4535.4, 4544.81, 4463.51
4557.58, 4480.02, 4452.93, 4559.57
4542.48, 4498.33, 4417.36, 4440.61
4562.38, 4582.28, 4612.92, 4646.24
4653.64, 4655.58, 4588.52, 4601.03
4617.29, 4550.74, 4684.89, 4668.44
4691.42, 4738.3, 4784.34, 4775.14
4727.71, 4820.25, 4814.13, 4859.54
4790.51, 4887, 4913.4, 5011.47
5025.72, 5123.45, 5156.71, 5324.88
5223.48, 5401.1, 5537.96, 5654.66
5598.87, 5655.88, 5819.06, 5700.41
5726.58, 5785.68, 5666.9, 5509.76
5327.4, 5355.91, 5328.63, 5141.47
4999.66, 4977.34, 4791.64, 4817.35
4731.73, 4587.53, 4555.61, 4464.78
4420.67, 4320.07, 4329.57, 4293.13
4129.56, 4171.96, 4291.06, 4181.66
4128.05, 4207.96, 4180.51, 4162.63
4030.62, 4092.42, 4055.39, 4116.02
4088.13, 3961.12, 4086.02, 4068.47
4015.1, 4078.51, 3974.5, 4040.99
4032.71, 4079.87, 3973.76, 3959.15
4004.68, 4042.48, 4037.71, 4016.73
4119.12, 3987.81, 4087.79, 3969.8
3896.15, 3980.81, 4022.46, 3978.42
3949.84, 3987.59, 3975.89, 3969.64
4049.74, 3971.6, 3928.45, 3967.1
3996.06, 3958.9, 3921.17, 3873.95
3953.9, 3945.76, 3925.6, 3955.62
3923.23, 3869.74, 3926.19, 4023.72
3961.66, 3960.54, 3916.08, 3886
3969, 4000.57, 3865.72, 3857.6
3876.9, 3845.12, 3928.62, 3892.21
3789.42, 3826.41, 3833.53, 3868.1
3835.95, 3893.19, 3986.11, 3942.57
3985.2, 3841.86, 3863.74, 3861.9
4013.57, 3977.44, 3927.81, 3970.16
3884.57, 3950.93, 3860.39, 3885.34
3916.95, 3874.6, 3867.65, 3948.92
3847.61, 3849.52, 3808.12, 3785.58
3743.93, 3879.29, 3938.94, 3918.66
3968.54, 3943.96, 3937.59, 3964.15
3960.21, 4031.56, 3881.42, 3919.69
3918.05, 3947.23, 3871.49, 4000.87
4025.42, 3961, 4045.85, 3967.74
3898.54, 4087.7, 3908.29, 3933.13
4015.59, 3971.94, 3974.89, 4164.63
3934.27, 3992.3, 4015.97, 3959.79
3972.83, 3864.7, 3958.13, 3981.8
3935.54, 3880.95, 3931.36, 3878.27
3788.31, 3782.31, 3943.77, 3834.66
3889.54, 3798.49, 3835.05, 3821.81
3844.02, 3834.8, 3829.27, 3738.87
3843.55, 3775.52, 3759.63, 3817.83
3827.96, 3801.05, 3790.34, 3722.7
3769.09, 3754.97, 3724.97, 3650.49
3683.22, 3715.64, 3750.43, 3722.6
3685.99
*END

*EOF