File: experimental_data/220722/s00129_Theta_2-Theta.asc
*TYPE		=  Raw
*CLASS		=  ASCII CLASS
*SAMPLE		=
*COMMENT	=
*FNAME		=  s00129_Theta_2-Theta.asc
*DATE		=  22-Jul-22 10:13

*GROUP_COUNT	=  1
*GONIO		=  SmartLab(In-plane), 0.000000
*ATTACHMENT	=  Z-Phi Stage
*ASC		=  0, 0, 0.000000, 0.000000
*I_MONOCHRO	=  Soller_slit_5.0deg, 0.000000
*FILTER		=  Cu_K-beta
*C_MONOCHRO	=  No_unit, 0.000000
*SLIT_NAME	=  0, Incident slit
*SLIT_NAME	=  1, Receiving slit # 1
*SLIT_NAME	=  2, Receiving slit # 2
*COUNTER	=  HyPix 3000(H), 0
*POS_FORMAT	=  0
*SCAN_AXIS	=  2theta/theta
*MEAS_MODE	=  Continuous Scanning
*TARGET		=  29
*XRAY_CHAR	=  K-ALPHA
*WAVE_LENGTH1	=  1.54059
*WAVE_LENGTH2	=  1.54441
*THICKNESS	=  0, 0.000000
*MU		=  0, 0.000000
*SCAN_MODE	=  2theta/theta
*SPEED_DIM	=  sec./step
*XUNIT		=  deg.
*YUNIT		=  counts
*SCALE_MODE	=  1
*REP_COUNT	=  0
*SE_COUNT	=  0
*STD_MATERIAL	=  Unknown, Unknown, 0.000000, 0.000000, 0.000000, 0.000000, 0.000000, 0.000000
*LATT_CONS	=  0, Unknown, Unknown, 0.000000, 0.000000, 0.000000, 0.000000, 0.000000, 0.000000
*SEC_COUNT	=  1
*TSPEC_SIZE	=  0
*EXTRA_SIZE	=  0
*MEMO		=

*BEGIN
*GROUP		=  0
*START		=  22
*STOP		=  36
*STEP		=  0.01
*OFFSET		=  0.000000
*SPEED		=  0.192275
*SLIT_SPEC	=  0, 1.000deg, 1, 0.000000
*SLIT_SPEC	=  1, 20.000mm, 20, 0.000000
*SLIT_SPEC	=  2, 20.100mm, 20.1, 0.000000
*KV		=  40
*MA		=  44
*LOW		=  0.000000
*HIGH		=  0.000000
*CTEMPER	=  0, 0.000000
*CTEMPER	=  1, 0.000000
*CTEMPER	=  2, 0.000000
*PAREX		=  0, 0.000000
*PAREX		=  1, 0.000000
*PAREX		=  2, 0.000000
*PAREX		=  3, 0.000000
*PAREX		=  4, 0.000000
*PAREX		=  5, 0.000000
*PAREX		=  6, 0.000000
*PAREX		=  7, 0.000000
*PAREX		=  8, 0.000000
*PAREX		=  9, 0.000000
*PAREX		=  10, 0.000000
*PAREX		=  11, 0.000000
*PAREX		=  12, 0.000000
*PAREX		=  13, 0.000000
*PAREX		=  14, 0.000000
*PAREX		=  15, 0.000000
*FULL_SCALE	=  72935.5
*INDEX		=  0, 0, 0
*COUNT		=  1401
8638.44, 8572.69, 8710.23, 8627.26
8509.9, 8778.41, 8687.49, 8691.42
8769.16, 8660.15, 8466.99, 8639.97
8718.87, 8771.59, 8654.93, 8666.15
8397.86, 8509.53, 8543.17, 8700.4
8540.13, 8628.93, 8582.72, 8608.83
8657.13, 8723.38, 8683.21, 8713.02
8857.29, 8653.31, 8572.79, 8504.35
8448.67, 8559.22, 8573.7, 8565.99
8607.73, 8643.88, 8658.1, 8748.42
8532.24, 8565.67, 8565.31, 8386.33
8755.66, 8464.18, 8464.6, 8486.94
8615.61, 8608.77, 8523.9, 8486.33
8311.59, 8668.54, 8491.04, 8589.21
8442.72, 8422.27, 8571.68, 8478.15
8399.9, 8582.49, 8584.41, 8562.45
8474.12, 8435.39, 8576.26, 8521.7
8402.64, 8422.96, 8458.85, 8590.2
8603.75, 8464.11, 8563.53, 8429.88
8305.25, 8489.46, 8242.32, 8398.45
8370.47, 8403.29, 8465.63, 8644.34
8609.1, 8472.87, 8376.3, 8589.79
8606.69, 8692.58, 8609.39, 8888.9
8914.34, 8863.56, 9019.54, 8906.75
9005.66, 9118.54, 9239.09, 9370.16
9500.83, 9553.77, 9718.18, 9904.56
10154.3, 10468.8, 10682.1, 11333
11461.5, 11342.5, 11542.1, 11686.4
11619.5, 11305, 11252.3, 10907.1
10690.5, 10352.9, 10261.5, 9792.7
9661.43, 9389.05, 9111.84, 9002.63
8817.28, 8806.48, 8868.81, 8869.56
8672.08, 8499.03, 8580.89, 8563.92
8674.45, 8455.24, 8516.11, 8497.37
8686.59, 8482.06, 8441.86, 8545.98
8679.39, 8680.59, 8676.09, 8830.61
8913.13, 8892.33, 8924.08, 9138.79
9174.82, 9138.89, 9427.31, 9594.1
9963.69, 9985.76, 10181.5, 10412.3
10469.6, 10888.8, 10897.3, 10737.8
10553.9, 10451, 10250, 9880.61
9851.36, 9712.51, 9356.23, 9157.3
9087.38, 8800.85, 8718.37, 8474.71
8594.93, 8556.81, 8200.72, 8439.46
8287.41, 8260.18, 8151.64, 8153.04
8143.29, 8116.17, 8131.79, 8064.39
8053.5, 8073.77, 8181.31, 8218.49
7914.15, 7983.58, 8011.76, 8103.22
7962.72, 7877.39, 7981.55, 8024.25
8017.83, 7945.92, 7947, 7947.28
8004.15, 8058.38, 7917.37, 7987.54
8090.78, 7985.85, 8100.63, 8138.41
8015.33, 8078.92, 8083.06, 7916.19
8126.05, 8082.03, 8103.09, 8207.85
8205.11, 8275.78, 8372.24, 8338.82
8510.74, 8555.14, 8657.42, 8829.26
9067.28, 9094.83, 9228.81, 9512.76
9563.52, 9784.09, 10128.2, 10148.5
10736.4, 10961.6, 11132, 11368.3
11416, 11250.3, 10914, 10714.4
10436.2, 10183.5, 9932.97, 9650.93
9230.72, 8941.28, 8617.43, 8517.3
8242.54, 8190.11, 7975.87, 8020.41
7971.07, 7794.32, 7748.57, 7689.7
7750.18, 7639.37, 7807.59, 7638.54
7565.63, 7501.33, 7439.37, 7594.3
7555.55, 7625.44, 7496.43, 7607.17
7448.68, 7501.36, 7553.24, 7451.19
7410.52, 7397.63, 7585.05, 7464.2
7498.38, 7419.64, 7357.05, 7287.23
7322.88, 7348.81, 7490.52, 7385.31
7252.88, 7370.91, 7227.94, 7428.75
7316.97, 7313.5, 7403.84, 7330.52
7339.06, 7289.42, 7251.21, 7361.46
7220.66, 7294.53, 7276.01, 7185.01
7336.56, 7230.23, 7356.42, 7359.62
7158.52, 7241.31, 7231, 7140.24
7239.96, 7248.46, 7227.39, 7200.32
7208.09, 7378.45, 7192.48, 7088.28
7180.96, 7227.51, 7034.83, 7191.73
7066.51, 7250.09, 7143.63, 7042.92
7177.16, 7039.02, 7251.69, 7182.46
7223.19, 7231.19, 7112.51, 7242.85
7081.89, 7017.14, 7060.7, 7019.84
7043.03, 7096.05, 7048.5, 7074.09
7071.78, 6933.97, 7130.59, 7038.06
7023.71, 7062.95, 6873.45, 6925
7012.81, 6859.64, 6844.18, 7096.13
6929.79, 6946.91, 6832.81, 6984.88
6953.16, 6842.54, 6921.54, 6985.51
7046.81, 6968.48, 6864.5, 6908.32
6847.83, 7051.93, 6908.74, 6841.55
6783.88, 6813.75, 6975.87, 6944.1
6889.5, 6853.7, 6905.27, 6963.92
6845.47, 6932.01, 6931.11, 7047.11
7007.99, 6961.46, 6757.09, 6738.91
6796.18, 6812.69, 6832.11, 6766
6913.6, 6884.86, 6933.66, 6828.75
6813.71, 6776.85, 6896.58, 6832.2
6634.07, 6706.83, 6784.83, 6822.63
6762.32, 6700.96, 6825.21, 6767.86
6805.74, 6702.57, 6806.16, 6795.03
6735.4, 6739.68, 6811.3, 6727.18
6679.97, 6752.07, 6857.71, 6665.88
6658.35, 6686.64, 6582.77, 6740.38
6648.51, 6594.39, 6667.13, 6607.59
6589.9, 6537.26, 6730.94, 6717.6
6544.25, 6660.23, 6753.5, 6701.03
6747.68, 6568.55, 6717.83, 6703.53
6548.51, 6764.21, 6576.72, 6678.43
6727.15, 6597.64, 6631.97, 6770.06
6749.01, 6754.25, 6659.12, 6742.14
6614.21, 6694.29, 6733.86, 6796.86
6854.88, 6892.89, 6881.94, 6998.06
6883.09, 6982.31, 7068.1, 6991.82
7061.12, 6976.12, 6794.49, 6862.72
6785.59, 6771.51, 6718.71, 6592.75
6592.61, 6554.78, 6610.08, 6581.32
6518.62, 6473.53, 6592.01, 6524.45
6433.56, 6564.04, 6479.15, 6394.43
6413.56, 6369.72, 6481.01, 6478.77
6486.62, 6395.51, 6282.9, 6302.27
6355.33, 6418.36, 6333.65, 6257.27
6314.68, 6241.2, 6286.02, 6343.13
6333.95, 6229.82, 6367.19, 6346.46
6347.82, 6318.25, 6338.9, 6210.9
6124.2, 6341.36, 6319.5, 6258.3
6335.74, 6298.4, 6214.33, 6183.06
6282.88, 6365.82, 6322.71, 6296.44
6271.82, 6349.36, 6185.85, 6311.67
6271.37, 6289.64, 6303.91, 6219.12
6277.71, 6299.12, 6222.08, 6191.69
6203.09, 6159.75, 6122.02, 6105.57
6152.81, 6242.01, 6267.34, 6169.85
6109.35, 6286.74, 6123.57, 6075.94
6221, 6142.8, 6078.52, 5935.23
6196.7, 6081.82, 6088.37, 6062.68
6029.84, 6105.78, 6025.93, 6066.57
6013.28, 6185.17, 6066.16, 6163.41
6076.07, 6113.41, 6081.63, 5924.84
6149.52, 6017.91, 6113.22, 6240.31
6061.62, 6037.96, 6015.02, 6038.36
6066.66, 6169.91, 6112.39, 5848.26
6017.96, 6002.27, 5959.93, 5922.76
5975.31, 5982.24, 5928.04, 5913.64
5998.59, 5968.45, 5993.27, 5964.45
5900.66, 5957.79, 6053.38, 5980.39
5836.57, 5931.25, 5984.19, 5943.22
5984.93, 6042.31, 5968.35, 5924.05
5879.28, 5893.46, 5959.49, 5955.19
5997.69, 6055.12, 5947.59, 5890.75
5779.67, 5955.48, 5770.52, 5856.77
6009.11, 6027.56, 5860, 5881.45
5934.1, 5845.34, 5791.53, 5939.98
5863.28, 5852.45, 5884.73, 5827.09
5797.85, 5817.83, 5826.97, 5868.19
5902.06, 5874.84, 5848.74, 5733.78
5750.47, 5868.06, 6008.52, 5842.28
5891.38, 5918.65, 5764.59, 5720.6
5821.53, 5756.9, 5794.66, 5816.43
5898.61, 5811.78, 5780.67, 5842.64
5662.22, 5750.48, 5754.18, 5783.51
5825.05, 5797.72, 5724.37, 5890.46
5914.12, 5855.75, 5837.75, 5892.3
5948.98, 5935.36, 5866.44, 6027.75
5928.52, 6041.13, 6012.67, 5996.41
6060.69, 5994.55, 5995.56, 6046.23
6149.43, 5999.62, 6085.49, 5981.07
6019.83, 6114.83, 6008.31, 6131.8
6031.64, 6098.52, 6040.24, 5978.15
5971.43, 6057.73, 6042.41, 6123.74
6171.6, 6033.82, 5979.49, 6010.2
6028.04, 6095.03, 6111.64, 6180.61
5975.53, 6091.64, 6066.13, 5935.35
5849.83, 5852.53, 5771.54, 5900.51
5815.99, 5777.78, 5741.76, 5672.65
5761.25, 5826.96, 5705.58, 5693.01
5620.98, 5745.76, 5592.69, 5593.87
5635.98, 5517.58, 5527.88, 5554.3
5543.77, 5529.12, 5496.31, 5497.43
5532.08, 5512.91, 5554.67, 5626.44
5572.94, 5539.03, 5506.64, 5479.19
5537.04, 5519.82, 5437.71, 5469.49
5460.4, 5517.59, 5472.3, 5331.97
5474.42, 5473.14, 5538.97, 5563.49
5405.35, 5397.44, 5439.87, 5546.85
5604.01, 5522.05, 5377.64, 5494.24
5486.49, 5419.14, 5404.5, 5373.54
5385.79, 5373.29, 5407.92, 5313.22
5423.7, 5461.95, 5428.87, 5408.17
5397.57, 5495.01, 5340.16, 5372.22
5352.55, 5453.26, 5407.62, 5385.01
5382.3, 5399.91, 5284.96, 5358.93
5269.16, 5223.67, 5339.63, 5307.83
5311.26, 5355.42, 5224.97, 5316.13
5181.47, 5342.71, 5351.22, 5281.7
5356.74, 5412.53, 5349.13, 5199.14
5229.38, 5297.57, 5184.99, 5276.28
5268.98, 5282.65, 5235.68, 5293.39
5293.34, 5276.36, 5333.24, 5238.83
5202.81, 5251.11, 5257.62, 5230.94
5120.35, 5338.67, 5344.69, 5297.9
5205.54, 5218.61, 5259.65, 5330.18
5146.6, 5321.42, 5206.23, 5235.59
5281.52, 5251.71, 5349.13, 5278.43
5258.31, 5177.82, 5228.49, 5210.42
5155.6, 5139.77, 5216.25, 5332.52
5149.42, 5138.13, 5140.16, 5166.35
5292.57, 5157.24, 5130.21, 5035.88
4996.67, 5136.78, 5177.31, 5106.31
5092.95, 5133.76, 5006.27, 5201.02
5015.6, 5175.23, 5041.07, 5222.95
5115.17, 4970.79, 5084.74, 5043.69
5230.41, 5213.6, 5240.81, 5120.06
5175.93, 5061.02, 5031.43, 4998.63
5202.04, 5073.85, 5083.15, 5008.08
5029.47, 5081.17, 5068.04, 5183.5
5191.81, 5070.81, 5053.28, 5103.86
5110.06, 5129.99, 5107.87, 4982.46
4994, 5075.91, 5066.18, 5080.61
5022.59, 5082.28, 5001.54, 4869.25
4936.92, 5036.17, 5054.66, 4968.13
5139.34, 5170.61, 5064.45, 5130.83
5016.67, 4950.26, 4940.61, 5019.67
5010.48, 4990.23, 4907.19, 5061.53
4998.34, 4918.66, 4918.63, 4950.13
4805.52, 4978.45, 4975.25, 5106.77
4979.73, 5034.63, 4986.18, 4952.34
4970.64, 4951.93, 4906.7, 4829.96
4932.46, 4819.88, 4988.59, 5055.98
5022.47, 4926.75, 4892.54, 4883.94
4835.72, 4917.52, 4969.95, 4949.73
4847.28, 4974.99, 4870.09, 4877.55
4932.88, 4913.57, 4891.24, 4864.06
4806.49, 4865.28, 4812.69, 4994.35
4845.99, 4841.31, 4807.61, 4870.87
4843.39, 4817.7, 4771.88, 4825.05
4839.89, 4846.79, 4797.57, 4739.38
4829.81, 4998.15, 4903.66, 4747.53
4822.1, 4761.23, 4803.04, 4841.66
4821.78, 4874.06, 4789.67, 4811.11
4776.92, 4903.78, 4716.96, 4769.84
4772.77, 4832.97, 4867.24, 4747.65
4802.24, 4749.68, 4697.03, 4714.39
4775.63, 4808.06, 4800.2, 4734.21
4682.41, 4792.81, 4896.57, 4819.6
4787.61, 4851.9, 4863.5, 4838.19
4821.22, 4784.18, 4671.46, 4744.95
4733.88, 4666.24, 4642.81, 4717.97
4651.41, 4782.21, 4646.96, 4601
4662.42, 4575.89, 4775.46, 4628.42
4622.95, 4708.44, 4588.41, 4674.19
4559.97, 4791.18, 4753.01, 4723.21
4759.82, 4732.6, 4753.94, 4810.16
4796.04, 4736.59, 4739.34, 4775.44
4716.75, 4799.3, 4761.21, 4776.77
4659.85, 4642.52, 4490.95, 4702.41
4647.41, 4810.81, 4732.7, 4692.61
4640.14, 4655.59, 4616.62, 4571.84
4540.73, 4607.43, 4576.71, 4668.52
4526.44, 4668.91, 4584.56, 4577.45
4698.27, 4567.89, 4606.46, 4580.22
4708.09, 4651.18, 4616.05, 4590.75
4582.06, 4654.29, 4718.29, 4747.32
4639.04, 4575.6, 4551.24, 4613.16
4562.8, 4638.55, 4540.72, 4682.25
4519.37, 4539.48, 4574.87, 4571.07
4587.71, 4636.75, 4550.92, 4670.2
4583.29, 4479.4, 4540.67, 4539.96
4505.19, 4574.74, 4559.68, 4623.66
4616.98, 4579.43, 4574.55, 4514.97
4609.88, 4588.21, 4571.57, 4572.64
4597.12, 4453.77, 4584.53, 4545.22
4598.72, 4509.28, 4510.98, 4656.8
4631.2, 4601.85, 4471.74, 4404.6
4559.57, 4559.3, 4660.21, 4549.85
4615.1, 4665.34, 4659.91, 4681.47
4795.3, 4671.29, 4825.05, 4930.07
4684.59, 4786.71, 4826.53, 4805.37
4930.52, 5011.35, 5111.59, 5215.28
5318.49, 5455.52, 5489.4, 5607.79
5620.18, 5722.02, 5719.03, 5497.15
5382.86, 5470.54, 5404.49, 5337.27
5313.61, 5221.62, 5280.31, 5231.94
5053.9, 4987.48, 4992.02, 4811.66
4752.66, 4918.56, 4814.14, 4784.85
4730.87, 4635.01, 4669.56, 4671.62
4750.46, 4759.33, 4799.06, 4711.63
4737.51, 4752.25, 4749.23, 4687.3
4792.94, 4743.96, 4686.28, 4747.63
4691.52, 4726.7, 4724.11, 4735.24
4662.59, 4651.72, 4716.35, 4675.06
4654.14, 4751.01, 4663.21, 4799.04
4725.25, 4744.2, 4682.08, 4692.84
4730.21, 4640.95, 4694.84, 4726.52
4709.27, 4725.62, 4714.15, 4778.56
4645.5, 4734.78, 4641.64, 4865.24
4874.31, 4798.09, 4802.72, 4830.69
4841.59, 4790.22, 4810.39, 4821.21
4921.41, 4951.62, 5114.04, 5074.76
5055.56, 5028.24, 5100.52, 5176.4
5221.04, 5464.62, 5528.29, 5540.59
5697.44, 5781.79, 5853.61, 5927.27
6109.2, 6019.73, 6074.32, 6161.06
6229.62, 6107.47, 5986.5, 5907.51
5492.6, 5637.95, 5578.16, 5379.91
5389.66, 5289.98, 5097.71, 5168.28
4982.3, 4926.24, 4772.55, 4605.48
4573.87, 4611.72, 4465.3, 4510.37
4496.55, 4559.42, 4527.33, 4396.66
4394.83, 4342.57, 4329.37, 4385.42
4360.65, 4275.69, 4340.73, 4277.53
4382.07, 4250.52, 4315.5, 4276.47
4301.44, 4289.61, 4243.82, 4178.95
4254.38, 4293.45, 4173.28, 4234.69
4126.36, 4130.74, 4228.18, 4223.41
4213.54, 4185.7, 4136.01, 4235.35
4281.53, 4205.08, 4188.68, 4221.56
4222.69, 4144.7, 4133.65, 4156.21
4127.36, 4065.94, 4137.17, 4179.04
4180.75, 4135.57, 4162.36, 4184.28
4089.82, 4164.21, 4189.09, 4166.67
4145.24, 4032.45, 4087.13, 4153.41
4270.78, 4215.03, 4133.51, 4097.5
4151.4, 4086.61, 4123.14, 4081.88
4108.03, 4100.36, 4134.54, 4129.49
4124.57, 4185.87, 4059.46, 4147.05
4164.17, 3932.62, 4140.46, 4132.73
4126.99, 4105.75, 4170.79, 4177.42
4075.4, 4207.01, 4127.83, 4024.64
4112.61, 4168.74, 4093.16, 4109.29
4151.9, 4206.97, 4226.04, 4085.04
4044.05, 4062.02, 4122.93, 4116.51
4066.61, 4092.87, 4156.97, 4178.66
4159.7, 4083.74, 4206.69, 4218.61
4194.68, 4225, 4274.09, 4167.9
4249.59, 4093.88, 4097.48, 4175.87
4213.7, 4142.11, 4166.18, 4101.49
4186.27, 4169.84, 4190.22, 4104.26
4125.09, 4054.21, 4055.17, 4203.36
4080.47, 4207.53, 4188.07, 4106.11
4111.87, 4184.5, 4172.6, 4134.68
4128.01, 4108.89, 4231.11, 4156.05
4111.49, 4083.57, 3934.79, 4242.14
4163.14, 4062.37, 4065.1, 4049.32
4026.97, 3987.03, 4053.14, 4026.63
4104.2, 3973.86, 4028.44, 4042.57
4011.27, 4022.59, 3971.87, 3927.41
3848.11, 4042.65, 3954.75, 4014.98
3982.78, 3969.42, 3942.61, 4056.8
3888.87
*END

*EOF