File: experimental_data/220722/s00125_Theta_2-Theta.asc
*TYPE		=  Raw
*CLASS		=  ASCII CLASS
*SAMPLE		=
*COMMENT	=
*FNAME		=  s00125_Theta_2-Theta.asc
*DATE		=  22-Jul-22 10:59

*GROUP_COUNT	=  1
*GONIO		=  SmartLab(In-plane), 0.000000
*ATTACHMENT	=  Z-Phi Stage
*ASC		=  0, 0, 0.000000, 0.000000
*I_MONOCHRO	=  Soller_slit_5.0deg, 0.000000
*FILTER		=  Cu_K-beta
*C_MONOCHRO	=  No_unit, 0.000000
*SLIT_NAME	=  0, Incident slit
*SLIT_NAME	=  1, Receiving slit # 1
*SLIT_NAME	=  2, Receiving slit # 2
*COUNTER	=  HyPix 3000(H), 0
*POS_FORMAT	=  0
*SCAN_AXIS	=  2theta/theta
*MEAS_MODE	=  Continuous Scanning
*TARGET		=  29
*XRAY_CHAR	=  K-ALPHA
*WAVE_LENGTH1	=  1.54059
*WAVE_LENGTH2	=  1.54441
*THICKNESS	=  0, 0.000000
*MU		=  0, 0.000000
*SCAN_MODE	=  2theta/theta
*SPEED_DIM	=  sec./step
*XUNIT		=  deg.
*YUNIT		=  counts
*SCALE_MODE	=  1
*REP_COUNT	=  0
*SE_COUNT	=  0
*STD_MATERIAL	=  Unknown, Unknown, 0.000000, 0.000000, 0.000000, 0.000000, 0.000000, 0.000000
*LATT_CONS	=  0, Unknown, Unknown, 0.000000, 0.000000, 0.000000, 0.000000, 0.000000, 0.000000
*SEC_COUNT	=  1
*TSPEC_SIZE	=  0
*EXTRA_SIZE	=  0
*MEMO		=

*BEGIN
*GROUP		=  0
*START		=  22
*STOP		=  36
*STEP		=  0.01
*OFFSET		=  0.000000
*SPEED		=  0.192275
*SLIT_SPEC	=  0, 1.000deg, 1, 0.000000
*SLIT_SPEC	=  1, 20.000mm, 20, 0.000000
*SLIT_SPEC	=  2, 20.100mm, 20.1, 0.000000
*KV		=  40
*MA		=  44
*LOW		=  0.000000
*HIGH		=  0.000000
*CTEMPER	=  0, 0.000000
*CTEMPER	=  1, 0.000000
*CTEMPER	=  2, 0.000000
*PAREX		=  0, 0.000000
*PAREX		=  1, 0.000000
*PAREX		=  2, 0.000000
*PAREX		=  3, 0.000000
*PAREX		=  4, 0.000000
*PAREX		=  5, 0.000000
*PAREX		=  6, 0.000000
*PAREX		=  7, 0.000000
*PAREX		=  8, 0.000000
*PAREX		=  9, 0.000000
*PAREX		=  10, 0.000000
*PAREX		=  11, 0.000000
*PAREX		=  12, 0.000000
*PAREX		=  13, 0.000000
*PAREX		=  14, 0.000000
*PAREX		=  15, 0.000000
*FULL_SCALE	=  67386.2
*INDEX		=  0, 0, 0
*COUNT		=  1401
8693.52, 8975.17, 8967.12, 8915.74
8956.02, 8879.96, 8874.86, 8809.92
8938.77, 8748.11, 8759.9, 8806.11
8900.73, 8901.78, 8702.67, 9004.25
8824.68, 8884.17, 8876.82, 8775.55
8915.32, 8899.39, 8756.81, 8832.61
8721.35, 8653.04, 8774.58, 8802.58
8738.42, 8681.5, 8725.17, 8834.63
8775.06, 8738.63, 8788.96, 8945.36
8716.68, 8701.43, 8880.55, 8782.61
8719.81, 8771.33, 8815.35, 8779.74
8727.18, 8672.4, 8744.42, 8833.03
8872.99, 8807.08, 8854.95, 8602.89
8738.81, 8630.06, 8686.7, 8676.12
8748.12, 8708.42, 8581.48, 8656.91
8691.52, 8656.85, 8552.91, 8732.63
8712.07, 8786.96, 8650.62, 8615.04
8809.87, 8747.3, 8672.06, 8601.07
8618.52, 8695.01, 8715.67, 8718.46
8785.66, 8720.17, 8571.36, 8669.25
8738.93, 8798.65, 8798.76, 8865.35
8740.85, 8671.28, 8718.54, 8739.07
8841.4, 8789.55, 8753.68, 8838.59
8868.55, 8906.81, 9067.87, 9005.01
9130.67, 8938.76, 8951.67, 9307.62
9303.65, 9403.98, 9371.28, 9458.24
9767.4, 9833.81, 9947.94, 9970.73
10250.3, 10403, 10592.4, 10797.2
10770.8, 10650.2, 10434.3, 10295.9
10118.2, 9918.36, 9846.22, 9824.09
9484.73, 9456.61, 9227.85, 9123.37
8960.45, 8888.47, 8883.07, 8886.7
8825.15, 8676.74, 8618.07, 8613.32
8759.88, 8707.61, 8726.14, 8548.92
8706.84, 8629.04, 8634.41, 8665.85
8733.51, 8690.12, 8801.81, 8712.49
8782.69, 8996.96, 8837.99, 8950.03
9037.57, 8977.72, 9244.16, 9271.08
9451.45, 9392.83, 9738.96, 9743.63
9891.11, 10116.1, 10119.4, 10110.8
9959.57, 9963.19, 9730.83, 9954.42
9393.89, 9598.78, 9312.87, 9057.59
9010.48, 8847.78, 8793.2, 8688.47
8702.96, 8537.6, 8424.11, 8283.89
8383.41, 8353.52, 8396.39, 8297.53
8230.16, 8343.05, 8186, 8279.87
8179.65, 8206.94, 8120.06, 8100.73
8210.11, 8171.5, 8149.73, 8126.88
8214.86, 8197.37, 8190.47, 8297.36
8158.3, 8155.22, 8093.81, 8065.72
8130.27, 8131.19, 8145.31, 8140.83
8059.28, 8173.85, 8182.13, 8160.05
8009.17, 8156.35, 8089.34, 8101.65
8048.7, 8215.68, 8259.09, 8162.73
8304.11, 8332.68, 8390.63, 8399.77
8375.29, 8412.58, 8615.76, 8704.85
8752.12, 8771.24, 8932.32, 8985.81
9056.09, 9223.38, 9494.48, 9415.67
9522.17, 9967.55, 10077.8, 10250.4
10248.8, 10381.7, 10180.5, 9912.15
9854.34, 9488.44, 9440.64, 9378.42
9170.19, 9055.87, 8687.15, 8520.46
8327.98, 8367.38, 8284.96, 8147.07
8066.62, 7934.92, 7889.4, 7850.15
7750.26, 7913.78, 7949.4, 7796.4
7722.27, 7836.72, 7737.67, 7664.04
7735.01, 7555.53, 7645.45, 7589.61
7588.26, 7580.66, 7536.45, 7509.01
7584.18, 7628.35, 7609.85, 7525.27
7622.16, 7453.85, 7554.78, 7623.64
7585.9, 7595.56, 7538.51, 7333.1
7608.22, 7246.18, 7459.07, 7542.83
7535.6, 7463.07, 7448.83, 7501.62
7395.71, 7469.19, 7444.8, 7399.69
7497.5, 7421.97, 7378.68, 7473.54
7424.1, 7361.42, 7273.21, 7409.65
7310.66, 7264.63, 7433.44, 7367.49
7408.7, 7532.65, 7452.05, 7410.1
7419, 7407.8, 7342.07, 7359.02
7293.68, 7259.89, 7241.21, 7261.61
7321.81, 7302.27, 7449.36, 7340.67
7383.86, 7145.35, 7277.38, 7112.05
7250.21, 7190.71, 7272.34, 7409.21
7310.27, 7213.09, 7200.7, 7344.33
7147.93, 7190.41, 7308.77, 7283.97
7263.59, 7165.42, 7143.61, 7209.37
7203.04, 7057.32, 7210.84, 7174.06
7217.63, 7290.84, 7236.16, 7153.38
7222.28, 7193.36, 7027.14, 6916.28
7133.04, 7110.69, 7089.5, 7138.85
7064.31, 7076.21, 7000.14, 7146.86
7092.81, 7113.95, 7139.26, 7110.32
7131.23, 6977.58, 6968.1, 7055.82
7174.99, 6992.24, 7035.45, 7015.83
7196.56, 7099.49, 7056.29, 7036.92
6980.47, 6973.27, 6850.07, 7037.03
6899.88, 6811.58, 6960.44, 6895.59
6971.07, 7089.5, 7083.97, 7121.16
7116.14, 6878.29, 6960.35, 6943.69
6964.7, 6993.57, 7005.42, 7009.69
6962.68, 6952.45, 7078.18, 6910.44
6884.24, 6988.83, 6916.98, 6845.61
6892.06, 6815.8, 6833.3, 6902.87
6779.34, 6821.91, 6829.71, 6868.18
6772.68, 6821.03, 6819.08, 6792.52
6691.06, 6686.65, 6697.11, 6861.92
6747.21, 6625.69, 6882.17, 6723.76
6715.53, 6783.06, 6688.87, 6786.2
6789.61, 6679.37, 6756.91, 6738.16
6734.09, 6686.64, 6706.32, 6712.08
6662.32, 6769.24, 6852.06, 6836.32
6776.13, 6731.5, 6662.05, 6885
6852.92, 6812.13, 6857.88, 6734.12
6703.03, 6855.16, 6876.74, 6826.88
6792.4, 6969.98, 7026.11, 6952.45
6899.46, 7043.7, 6979.17, 6822.42
6914.87, 6813.96, 6788.13, 6745.7
6717.67, 6642.32, 6757.98, 6814.87
6770.51, 6628.44, 6739.84, 6653.05
6594.56, 6555.08, 6676.04, 6600.56
6646.58, 6578.78, 6561.6, 6667.19
6523.19, 6547.26, 6416.27, 6410.78
6569.06, 6438.97, 6452.47, 6430.16
6501.32, 6666.35, 6475.85, 6386.48
6580.3, 6363.31, 6425.5, 6406.7
6421.44, 6435.38, 6467.85, 6428.23
6347.34, 6451.66, 6413.36, 6418.51
6409.1, 6500.65, 6422.46, 6342.42
6420.52, 6408.21, 6424.67, 6337.47
6369.43, 6369.24, 6364.92, 6361.21
6378.86, 6380.99, 6420.54, 6430.75
6464.15, 6306.12, 6328.72, 6325.75
6216.3, 6306.43, 6270.94, 6409.93
6306.18, 6230.08, 6212.67, 6241.18
6279.61, 6158.06, 6337.52, 6202.12
6280.31, 6251.18, 6311.22, 6135.91
6245.04, 6241.66, 6289.72, 6373.13
6290.17, 6105.37, 6322.19, 6235.68
6274.56, 6070.33, 6230.18, 6251.97
6332.46, 6184.62, 6164.72, 6157.46
6124.23, 6166.81, 6167.55, 6068.39
6223.56, 6209.65, 6205.25, 6168.18
6105.05, 6094.47, 6168.86, 6044.35
6195.99, 6234.44, 6079.51, 6205.29
6087.58, 6221.74, 6218.67, 6117.78
6178.09, 6193.31, 6206.11, 6088.62
6039.98, 6196.67, 6091.73, 6157.82
6095.14, 6046.08, 6173.64, 6034.66
6050.8, 6108.17, 5888.33, 6142.47
6090.94, 6031.55, 6110.74, 6049.62
5952.94, 5933.82, 6074.59, 5988.07
5955.57, 6007.42, 5975.7, 6035.13
6002.06, 5995.33, 6006.44, 5942.11
5904.72, 6064.77, 6010.83, 5910.6
5902.93, 6049.87, 6004.03, 6036.16
5837.24, 5975.36, 5851.95, 5920.11
5975.58, 5950.55, 5975.48, 5857.88
5941.91, 5862.97, 5737.27, 5955.63
5935.56, 5897.51, 5981.77, 5936.94
6051.37, 5875.36, 6037.67, 5967.56
5921.07, 5983.8, 5922.63, 5927.89
5936.39, 6016.16, 5836.34, 5909.91
5951.01, 6021.66, 5931.21, 6020.44
5942.02, 6032.76, 5957.87, 5993.85
5933.95, 6071.57, 6053.05, 6033.81
6058.14, 5954.8, 6050.84, 6048
6010.92, 5912.9, 5974.78, 6036.21
6007.44, 5986.38, 6176.3, 6173.34
6108.83, 5986.54, 6115.05, 6075.15
6042.86, 6078.54, 6119.91, 6091.11
6070.66, 5978.75, 5953.13, 6004.38
6059.29, 6023.74, 6024.61, 6025.09
6172.65, 6121.12, 6171.95, 6024.69
6001.56, 5944.53, 5983.9, 5893.94
6046.15, 5933.17, 5937.19, 6009.31
5948.28, 5807.12, 5923.75, 5830.43
5875.69, 5813.64, 5680.5, 5798.93
5711.91, 5675.17, 5768.78, 5659.84
5571.79, 5633.62, 5596.75, 5508.17
5637.56, 5608.17, 5668.56, 5642.19
5663.36, 5692.81, 5576.4, 5667.54
5620.99, 5695.29, 5612.52, 5675.36
5606.2, 5705.83, 5652.84, 5708.92
5687.2, 5669.31, 5517.43, 5517.76
5554.08, 5594.68, 5661.34, 5557.14
5454.49, 5510.18, 5690.57, 5557.1
5588.84, 5565.23, 5502.99, 5572.38
5399.99, 5467.89, 5394.69, 5535.84
5494.1, 5439.59, 5485.4, 5423.19
5625.67, 5505.33, 5467.81, 5544.78
5400.32, 5405.8, 5459.22, 5443.23
5514.21, 5441.45, 5450.96, 5394.72
5394.27, 5424.41, 5551.99, 5352.81
5435.55, 5522.27, 5422.41, 5447.62
5496.44, 5446.32, 5395.37, 5554.02
5462.82, 5281.13, 5381.46, 5378.38
5362.46, 5470.43, 5485.17, 5365.81
5409.44, 5428.96, 5407.74, 5361.87
5501.69, 5502.47, 5452.49, 5442.69
5449.57, 5565.93, 5481.4, 5427.45
5349.81, 5426.54, 5365.41, 5422.64
5355.68, 5467.4, 5374.03, 5331.52
5418.61, 5473.25, 5226.11, 5447.32
5340.56, 5444.07, 5414.5, 5433.34
5325.88, 5332.31, 5275.82, 5377.8
5265.52, 5225.08, 5401.25, 5320.1
5321.83, 5334.98, 5284.03, 5332.66
5234.91, 5266.82, 5350.21, 5379.96
5309.1, 5359.28, 5275.3, 5252.47
5308.43, 5320.85, 5204.5, 5150
5284.56, 5207.45, 5168.16, 5285.11
5198.11, 5309.31, 5144.58, 5336.46
5222.86, 5161.09, 5216.63, 5326.62
5227.23, 5313.55, 5245.94, 5244.13
5270.13, 5191.73, 5141.58, 5237.44
5244.74, 5233.25, 5088.25, 5149.68
5254.87, 5225.92, 5191.48, 5151.67
5130.82, 5031.67, 5328.9, 5234.04
5057.13, 5199.65, 5073.08, 5011.59
5162.49, 5181.61, 5150.2, 5182.14
5126.24, 5170.5, 5198.05, 5100.3
5207.74, 5194.78, 5164.44, 5186.83
5042.4, 5222.9, 5206.96, 5173
5087.3, 5032.68, 5114.02, 5090.01
4961.19, 5084.82, 5136.96, 5113.01
5119.64, 5130.17, 5108.2, 5072.62
5084.41, 4999.46, 5136.23, 5111.64
5094.09, 5049.19, 5104.19, 4927.88
5080.82, 5064.11, 5107.79, 5019.93
5045.09, 5057.06, 5095.99, 5212.35
5088.42, 5020.61, 5173.08, 5139.35
5064.69, 5100.53, 5042.85, 5020.97
5071.66, 5020.65, 4924.31, 4977.96
4995.91, 5057.01, 5010.2, 5019.42
4971.69, 4981.82, 4984.53, 4982.72
4994.19, 4930.42, 4896.7, 4977.28
4915.25, 5034.45, 4961.42, 4859.61
4827.86, 4850.61, 4833.69, 4923.05
4865.49, 4957.52, 4871.07, 4858.88
4818.2, 4956.93, 4904.55, 5007.59
4875.66, 4903.86, 4963.42, 4938.96
5017.04, 4845.96, 4913.06, 4890.77
4856.99, 4966.65, 4718.47, 4844.93
4799.64, 4962.63, 4921.13, 4853.33
4913.82, 4964.17, 4897.21, 4842.58
4795.72, 4792.93, 4833.92, 4797.62
4908.95, 4945.8, 4887.98, 4870.79
4929.81, 4911.94, 4832.64, 4840.07
4848.98, 4711.17, 4867.47, 4755.93
4874.43, 4832.55, 4887.99, 4894.79
4810.56, 4897.62, 4829.73, 4841.89
4788.14, 4772.81, 4889.34, 4854.12
4773.76, 4855.21, 4715.27, 4769.56
4809.02, 4790.45, 4775.32, 4820.45
4885.14, 4834.28, 4728.2, 4814.07
4782.87, 4759.28, 4807.22, 4693.95
4817.75, 4743.88, 4732.82, 4787.66
4752.3, 4828.13, 4758.07, 4801.76
4765.33, 4812.51, 4749.49, 4725.42
4739.07, 4772.35, 4816.14, 4785.91
4747.57, 4817.57, 4710.88, 4745.81
4700.71, 4714.02, 4646.58, 4774.56
4728.83, 4727.53, 4716.69, 4633.12
4641.83, 4718.46, 4705.27, 4641.35
4640.34, 4708.94, 4660.83, 4689.42
4701.1, 4666.96, 4715.37, 4707.59
4633.39, 4692.84, 4647.82, 4656.58
4630.21, 4609.3, 4669.92, 4611.6
4691.17, 4661.8, 4711.78, 4644.1
4654.63, 4698.19, 4644.03, 4730.43
4740.85, 4655.22, 4587.6, 4695.44
4587.7, 4618.96, 4592.21, 4687.79
4666.69, 4617.19, 4649.35, 4653.23
4669.39, 4605.55, 4652.96, 4658.33
4576.25, 4648.79, 4620.18, 4663.09
4768.45, 4653.48, 4630.01, 4624.66
4617.76, 4705.38, 4718.96, 4602.64
4735.72, 4670.57, 4761.26, 4700.07
4742.35, 4825.98, 4787.79, 4893.39
5004.56, 4969.49, 4968.28, 4983.32
5067.25, 5204.82, 5141.91, 5310.42
5356.93, 5364.01, 5461.25, 5426.64
5357.6, 5300.49, 5195.42, 5148.65
5130.98, 5154.91, 5092.99, 5044.25
4987.37, 4943.62, 4758.6, 4740.33
4843.79, 4696.76, 4739.33, 4719.95
4728.99, 4666.16, 4671.17, 4659.88
4754.36, 4636.82, 4748.28, 4778.31
4768.99, 4705.69, 4775.72, 4826.43
4751.28, 4611.62, 4788.47, 4817.97
4705, 4715.96, 4729.21, 4769.21
4757.77, 4695.05, 4800.25, 4706.56
4813.62, 4880.15, 4760.14, 4687.47
4658.34, 4706.05, 4691, 4770.74
4605.58, 4663.49, 4758.59, 4747.14
4707.69, 4763.43, 4713.62, 4671.59
4784.8, 4816.57, 4828.93, 4731.3
4837.11, 4793.5, 4936.91, 4714.19
4849.87, 4835.52, 4859.96, 4862.63
4877.96, 4900.4, 4881.79, 4932.17
4930.41, 4860.53, 4984.38, 5167.71
4952.34, 5204.74, 5311.89, 5228.66
5272.85, 5311.8, 5431.77, 5425.11
5500.73, 5565.77, 5618.42, 5753.48
5761.21, 5608.77, 5666.56, 5675.6
5536.06, 5377.58, 5398.55, 5099.78
5174.2, 5174.25, 4970.49, 4852.3
4920.01, 4689.77, 4669.85, 4692.47
4721.29, 4667.26, 4651.31, 4545.27
4601.66, 4525.15, 4433.64, 4424.69
4459.73, 4307.32, 4367.75, 4486.69
4336.94, 4340.75, 4289.79, 4325.18
4389.6, 4256.98, 4347.6, 4252.58
4381.35, 4283.37, 4374.92, 4318.77
4236.56, 4273.2, 4425.32, 4421.4
4241.98, 4350.15, 4325.42, 4336.23
4310.76, 4349.69, 4257.3, 4324.93
4394.43, 4357.19, 4308.23, 4183.3
4236.36, 4245.43, 4196.62, 4257.53
4318.24, 4201.89, 4222.75, 4219.21
4169.03, 4196.59, 4176.19, 4271.92
4175.64, 4254.7, 4222.79, 4276
4203.79, 4190.4, 4178.32, 4137.09
4186.71, 4236.14, 4262.98, 4358.89
4212.74, 4144.17, 4247.06, 4172.92
4143.14, 4157.99, 4161.29, 4296.08
4296.9, 4207.9, 4214.99, 4220.63
4221.01, 4120.09, 4242.75, 4290.06
4191.91, 4186.19, 4157.43, 4243.16
4219.94, 4218.46, 4187.71, 4184.2
4222.74, 4146.43, 4257.16, 4198.1
4127.25, 4207.55, 4240.52, 4205.64
4214.33, 4234.74, 4221.99, 4206.54
4177.58, 4324.64, 4270.72, 4183.27
4203.93, 4252.03, 4188.32, 4260.39
4210.1, 4246.9, 4298.24, 4161.75
4153.42, 4162.16, 4186.21, 4192.36
4268.37, 4268.13, 4173.94, 4361.51
4252.27, 4335.26, 4206.23, 4210.6
4200.85, 4235.9, 4193.7, 4200.44
4232.74, 4279.66, 4302.88, 4113.06
4195.71, 4171.47, 4099.57, 4125.8
4158.03, 4219.84, 4125.62, 4191.43
4125.03, 4070.11, 4208.66, 4119.32
4134.91, 4149.99, 4081.54, 4159.05
4045.23, 4072.43, 4076.22, 4111.83
4172.71, 4166.64, 3999.78, 4109.04
4115.23, 4137.02, 4086.91, 4067.99
4069.73, 4005.8, 4080.57, 3924.06
4012.97, 4036.79, 4024.21, 4078.38
4003.64
*END

*EOF