File: experimental_data/220722/s00131_Theta_2-Theta.asc
*TYPE		=  Raw
*CLASS		=  ASCII CLASS
*SAMPLE		=
*COMMENT	=
*FNAME		=  s00131_Theta_2-Theta.asc
*DATE		=  22-Jul-22 10:38

*GROUP_COUNT	=  1
*GONIO		=  SmartLab(In-plane), 0.000000
*ATTACHMENT	=  Z-Phi Stage
*ASC		=  0, 0, 0.000000, 0.000000
*I_MONOCHRO	=  Soller_slit_5.0deg, 0.000000
*FILTER		=  Cu_K-beta
*C_MONOCHRO	=  No_unit, 0.000000
*SLIT_NAME	=  0, Incident slit
*SLIT_NAME	=  1, Receiving slit # 1
*SLIT_NAME	=  2, Receiving slit # 2
*COUNTER	=  HyPix 3000(H), 0
*POS_FORMAT	=  0
*SCAN_AXIS	=  2theta/theta
*MEAS_MODE	=  Continuous Scanning
*TARGET		=  29
*XRAY_CHAR	=  K-ALPHA
*WAVE_LENGTH1	=  1.54059
*WAVE_LENGTH2	=  1.54441
*THICKNESS	=  0, 0.000000
*MU		=  0, 0.000000
*SCAN_MODE	=  2theta/theta
*SPEED_DIM	=  sec./step
*XUNIT		=  deg.
*YUNIT		=  counts
*SCALE_MODE	=  1
*REP_COUNT	=  0
*SE_COUNT	=  0
*STD_MATERIAL	=  Unknown, Unknown, 0.000000, 0.000000, 0.000000, 0.000000, 0.000000, 0.000000
*LATT_CONS	=  0, Unknown, Unknown, 0.000000, 0.000000, 0.000000, 0.000000, 0.000000, 0.000000
*SEC_COUNT	=  1
*TSPEC_SIZE	=  0
*EXTRA_SIZE	=  0
*MEMO		=

*BEGIN
*GROUP		=  0
*START		=  22
*STOP		=  36
*STEP		=  0.01
*OFFSET		=  0.000000
*SPEED		=  0.192275
*SLIT_SPEC	=  0, 1.000deg, 1, 0.000000
*SLIT_SPEC	=  1, 20.000mm, 20, 0.000000
*SLIT_SPEC	=  2, 20.100mm, 20.1, 0.000000
*KV		=  40
*MA		=  44
*LOW		=  0.000000
*HIGH		=  0.000000
*CTEMPER	=  0, 0.000000
*CTEMPER	=  1, 0.000000
*CTEMPER	=  2, 0.000000
*PAREX		=  0, 0.000000
*PAREX		=  1, 0.000000
*PAREX		=  2, 0.000000
*PAREX		=  3, 0.000000
*PAREX		=  4, 0.000000
*PAREX		=  5, 0.000000
*PAREX		=  6, 0.000000
*PAREX		=  7, 0.000000
*PAREX		=  8, 0.000000
*PAREX		=  9, 0.000000
*PAREX		=  10, 0.000000
*PAREX		=  11, 0.000000
*PAREX		=  12, 0.000000
*PAREX		=  13, 0.000000
*PAREX		=  14, 0.000000
*PAREX		=  15, 0.000000
*FULL_SCALE	=  64665.9
*INDEX		=  0, 0, 0
*COUNT		=  1401
8148.64, 8533.96, 8253, 8307.31
8333.33, 8442.22, 8465.5, 8382.07
8294.39, 8380.05, 8233.96, 8305.91
8422.13, 8406.74, 8247.24, 8218.77
8323.71, 8410.93, 8300.96, 8371.19
8225.63, 8201.34, 8222.64, 8146.93
8362.59, 8293.03, 8320.19, 8356.36
8308.79, 8260.63, 8356.31, 8320.09
8364.83, 8318.58, 8060.69, 8136.45
8256.22, 8468.2, 8306.99, 8221.66
8372.01, 8357.45, 8280.2, 8308.89
8140.97, 8230.5, 8172.79, 8233.92
8176.82, 8336.7, 8265, 8269.65
8159.96, 8283.38, 8243.61, 8303.26
8240.33, 8110.24, 8327.61, 8222.17
8175.85, 8149.37, 8117.78, 7994.25
8250.59, 8159.61, 8232.93, 8097.25
8117.89, 8008.7, 8081.05, 8079.47
8235.39, 8256.51, 8255.79, 8238.33
8317.57, 8284.08, 8270.93, 8225.1
8175.72, 8298.77, 8258.25, 8276.23
8221, 8196.63, 8303.47, 8336.54
8212.02, 8309.11, 8348.11, 8407.09
8252.48, 8376.91, 8441.21, 8498.96
8426.14, 8609.76, 8625.94, 8808.58
8782.34, 8978.31, 9349.42, 9351.99
9357.14, 9619.81, 9795.69, 9908.74
10123.3, 10180.8, 10361.4, 10283.3
10188.5, 10080.5, 9990.56, 9885.14
9889.66, 9663.37, 9347.9, 9179.13
8905.99, 8746.64, 8780.17, 8594.55
8543.05, 8479.02, 8305.32, 8334.43
8341.14, 8243.39, 8030.15, 8145.7
8266.45, 8067.62, 8010.63, 8145.44
8188.48, 8307.63, 8252.64, 8226.72
8341.27, 8409.91, 8341.18, 8278.62
8470.1, 8514.35, 8390.28, 8543.85
8654.93, 8702.22, 8818.49, 9002.62
9182.48, 9209.75, 9436.79, 9625.75
9611.7, 9890.61, 9877.15, 9739.25
9604.31, 9544.19, 9352.62, 9223.44
9077.36, 8940.33, 8805.46, 8548.75
8457.6, 8374.42, 8307.3, 8124.25
8071.89, 7985.99, 7919.57, 8000.7
7908.04, 8081.39, 8026.6, 7926.16
7849.09, 7824.53, 7745.41, 7719.83
7705.82, 7837.41, 7859.93, 7618.35
7728.58, 7682.18, 7797.56, 7536.77
7610.13, 7765.73, 7685.47, 7639.6
7637.06, 7686.38, 7718.53, 7628.15
7677.94, 7693.08, 7694.22, 7875.89
7920.81, 7762.9, 7629.67, 7620.96
7652.15, 7713.54, 7744.3, 7790.99
7834.09, 7834.25, 7825.03, 7899.67
8044.49, 8039.95, 7941.9, 8023.77
8020.21, 8270.56, 8251.96, 8213.91
8326.91, 8386.11, 8596.23, 8673.79
8783.76, 9127.87, 9217.18, 9405.46
9604.01, 9633.26, 10000.4, 10015
10048.9, 10005.9, 9854.17, 9525.33
9415.17, 9227.01, 9039.05, 8721.26
8498.29, 8443.21, 8171.71, 8038.35
7872.07, 7711.49, 7664.49, 7392.36
7476.26, 7431.62, 7453.73, 7523.55
7413.88, 7558.88, 7516.19, 7335.03
7379.47, 7293.28, 7244.04, 7442.55
7335.06, 7361.03, 7321.29, 7177.05
7087.63, 7229.62, 7247.09, 7318.74
7146.11, 7373.09, 7149.62, 7214.55
7243.27, 7137.88, 7211.79, 7210.24
7037.56, 7113.74, 7118.95, 7152.71
7126.19, 7270.46, 7026.15, 7190.21
7127.96, 7086.33, 7056.37, 7165.58
7032.69, 7166.16, 7020.25, 7069.6
7067.61, 7057.35, 7095.82, 6989.49
7048.76, 7019.7, 6984.05, 7083.12
6908.96, 7048.38, 6926.53, 7046.85
6975.63, 6978.59, 7013.76, 7060.87
7017.75, 6913.11, 6820.41, 6920.34
6990.41, 6881.77, 6994.16, 7019.68
6922.22, 7026.56, 7108.03, 6880.76
6811.08, 6887.84, 6838.07, 6734
6697.23, 6902.82, 6971.96, 7020.73
6780.78, 6831.77, 6979.53, 6908.06
6782.76, 6925.49, 6858.79, 6875.59
6878.63, 6807.34, 6889.57, 6845.37
6837.92, 6781.87, 6854.39, 6807.09
6767.93, 6793.56, 6728.56, 6755.68
6692.94, 6818.21, 6763.96, 6707.95
6695.14, 6809.19, 6805.48, 6960.52
6819.12, 6762.17, 6551.36, 6755.69
6805.98, 6633.8, 6815.78, 6675.68
6708.54, 6772.57, 6846.52, 6658.6
6697.13, 6684.3, 6552.16, 6751.61
6530.87, 6613.61, 6617.48, 6661.9
6719.39, 6537.5, 6567.17, 6702.57
6615.62, 6656.81, 6644.04, 6625.93
6606.49, 6561.46, 6576.39, 6708.13
6572.55, 6674.81, 6688.77, 6587.62
6625.86, 6569.51, 6765.12, 6614.97
6505.77, 6603.5, 6572.38, 6641.72
6681.36, 6515.19, 6491.67, 6503.39
6553.01, 6555.13, 6689.83, 6611.76
6532.33, 6552.01, 6582.71, 6421.84
6643.58, 6498.87, 6527.59, 6576.33
6589.63, 6617, 6620.71, 6491.94
6651.65, 6489.24, 6499.1, 6548.45
6509.57, 6533.15, 6462.37, 6467.21
6638.43, 6699.99, 6523.11, 6576.06
6674, 6712.51, 6701.1, 6739.46
6670.01, 6638.15, 6536.1, 6626.14
6633.44, 6599.6, 6630.34, 6745.41
6823.84, 6848.75, 6755.2, 6882.83
6946.74, 6882.94, 6924.64, 7027.25
6991.53, 6894.76, 7008, 7078.16
6881.26, 7016.58, 6861.08, 6949.4
6829.31, 6816.99, 6625.54, 6658.74
6599.44, 6632.19, 6511.18, 6602.54
6509.17, 6530.27, 6504.97, 6513.49
6459.36, 6391.56, 6367.2, 6460.27
6455.3, 6220.06, 6370.29, 6470.87
6340.26, 6321.76, 6265.85, 6272.48
6300.2, 6325.62, 6365.6, 6212.69
6285.77, 6168.05, 6113.73, 6260.75
6201.11, 6352.34, 6113.63, 6285.46
6203.9, 6109.29, 6114.27, 6116.99
6226.44, 6201.28, 6115.79, 6092.71
6144.52, 6167.39, 6066.1, 6216.07
6149.37, 6127.82, 5986.68, 5994
5961.62, 6073.69, 6062.39, 6058.87
6148.4, 5982.1, 6085.89, 6051.97
6095.81, 6074.59, 5954.13, 6053.99
6024.65, 5928.37, 5931.4, 5922.32
5940.76, 5871.04, 5932.15, 5900
5905.97, 5906.63, 5853.47, 5970.5
5939.85, 5961.71, 5788.47, 5861.95
5932.56, 5869.02, 6005.02, 5901.81
5915.8, 5866.77, 6018, 6019.01
6008.94, 5845.05, 5793.47, 5828.07
5867.21, 5804.8, 5945.1, 5907.37
5817.01, 5765.23, 5767.04, 5817.96
5867.98, 5849.59, 5838.93, 5941.67
5861.76, 5823.65, 5822.25, 5829.67
5761.52, 5723.01, 5840.2, 5912.81
5845.92, 5790.43, 5844.14, 5720.29
5666.52, 5761.04, 5826.42, 5771.74
5829.92, 5770.7, 5755.58, 5874.41
5740.18, 5711.23, 5517.11, 5757.72
5754.69, 5694.34, 5794.39, 5730.91
5747.44, 5647.14, 5744.59, 5680.73
5681.9, 5760.64, 5861.95, 5764.89
5762.67, 5703.02, 5724.36, 5619.79
5644.9, 5690.49, 5742.52, 5648.7
5631.14, 5734.46, 5618.87, 5646.43
5601.29, 5552.12, 5589.34, 5522
5679.28, 5757.42, 5618.43, 5658.65
5623.11, 5637.5, 5739.71, 5647.67
5488.07, 5572.91, 5643.86, 5680.38
5698.59, 5741.15, 5613.73, 5611.17
5666.59, 5635.05, 5632.5, 5566.51
5700.78, 5515.73, 5578.36, 5687.03
5560.5, 5530.77, 5583.03, 5681.13
5701.07, 5585.39, 5656.65, 5730.97
5612.83, 5582.64, 5719.66, 5804.86
5774.79, 5677.66, 5666.51, 5660.11
5831.14, 5856.9, 5613.77, 5753.39
5724.43, 5666.47, 5833.24, 5875.26
5790.09, 5635.21, 5837.74, 5771.59
5831.93, 5672.95, 5713.27, 5710.01
5768.2, 5812.47, 5810.53, 5836.3
5705.93, 5722.02, 5730.65, 5665.39
5704.45, 5729.75, 5675.42, 5718.04
5759.3, 5699.42, 5761.41, 5629.73
5612.61, 5711.71, 5513.7, 5625.89
5592.8, 5592.99, 5580.47, 5579.21
5512.75, 5560.17, 5501.97, 5559.45
5347.64, 5414.9, 5407.51, 5387.33
5355.29, 5376.22, 5411.8, 5421.99
5338.22, 5447.37, 5258.1, 5438.85
5343.44, 5294.96, 5284.72, 5315.95
5374.63, 5295.46, 5283.02, 5348.96
5307.02, 5272.66, 5441.77, 5308.59
5232.57, 5325.44, 5246.68, 5213.23
5267.7, 5188.94, 5148.77, 5130.77
5163.7, 5254.49, 5257.48, 5208.42
5183.48, 5239.75, 5178.16, 5306.4
5280.16, 5223.75, 5223.81, 5189.71
5150.63, 5271.74, 5157.2, 5142.39
5213.59, 5218.52, 5187.34, 5126.32
5137.54, 5151.37, 5177.07, 5116.3
5194.54, 5196.51, 5098.11, 5199.96
5078.83, 5183.95, 5199.25, 5123.8
5223.07, 5057.88, 5146.82, 5142.75
5102.91, 5170, 5135.18, 5193.59
5110.3, 5181.89, 5120, 5181.24
5247.72, 5094.81, 5151.22, 5071.19
5105.43, 5059.59, 5118.31, 5094.49
5159.5, 5016.83, 5076.94, 5011.44
5092.64, 5065.34, 5144.68, 4996.58
5009.03, 4984.86, 5017.66, 5022.16
5097.04, 5003.99, 4942.42, 4903.45
5012.93, 5057.17, 5104.16, 5000.79
4966.65, 5103.32, 4968.51, 4867.32
4946.05, 4977.64, 5064.14, 4982.17
5034.52, 5063.23, 4953.49, 5000.35
4992.5, 4882.34, 4905.75, 4956.75
4958.29, 4981.04, 4978.2, 5079.2
4911.61, 4956.18, 5114.15, 4985.47
4944.99, 4960.21, 4986.04, 4999.46
4872.58, 4909.52, 4916.73, 4933.62
4936.51, 4905.63, 4889.48, 4895.14
4934.31, 4909.62, 4868.55, 4874.18
5006.51, 4993.17, 4952.49, 4852.69
4919.56, 5001.82, 4927.56, 4939.44
4834.06, 4771.19, 4809.43, 4898.34
4861.96, 4820.55, 4770.51, 4940.66
4797.08, 4835.98, 4899, 4747.63
4699.78, 4810.23, 4863.15, 4821.68
4904.35, 4876.8, 4714.71, 4801.82
4801.83, 4905.64, 4840.63, 4786.81
4768.89, 4817.91, 4944.54, 4815.54
4864.24, 4940.47, 4754.97, 4709.77
4714.67, 4787.24, 4827.82, 4767.93
4858.39, 4724.48, 4825.15, 4766.84
4657.27, 4846.41, 4731.23, 4818.92
4718.88, 4681.95, 4727.94, 4740.11
4817.26, 4741.3, 4738.98, 4769.06
4885, 4746.48, 4677.41, 4737.94
4831.09, 4734.9, 4713.96, 4704.64
4771.68, 4732.38, 4738.22, 4757.18
4678.17, 4704.22, 4705.1, 4600
4809.6, 4871.18, 4758.84, 4712.18
4674.77, 4684.54, 4812.72, 4700.99
4674.91, 4638.47, 4659.24, 4542.06
4710.06, 4711.71, 4640.21, 4664.29
4758.35, 4768.21, 4614.91, 4677.53
4639.43, 4672.5, 4682.78, 4658.54
4621.56, 4638.68, 4626.52, 4669.82
4671.19, 4710.81, 4636.22, 4673.34
4656.79, 4658.04, 4645.61, 4642.74
4674.3, 4620.48, 4660.83, 4634.46
4656.91, 4676.4, 4643.99, 4626.99
4622.3, 4568.59, 4534.86, 4661.4
4610.95, 4526.9, 4575.06, 4540.5
4661.61, 4609.16, 4607.96, 4587.5
4445.52, 4624.48, 4558.92, 4558.55
4537.81, 4588.79, 4483.2, 4628.79
4581.92, 4524.31, 4538.55, 4529.17
4635.8, 4569.04, 4573.25, 4483.48
4599, 4484.09, 4547.41, 4516.75
4591.16, 4666.65, 4610.2, 4521.12
4656.55, 4617.45, 4545.16, 4593.31
4502.36, 4509.73, 4494.51, 4498.35
4536.78, 4483.77, 4460.49, 4529.76
4471.18, 4479.46, 4558.75, 4559.45
4485.25, 4522.59, 4527.94, 4605.26
4483.13, 4565.33, 4457.83, 4436.62
4520.03, 4408.92, 4489.47, 4484.57
4482.58, 4356.41, 4454.12, 4437.16
4504.26, 4537.37, 4557.44, 4435.86
4560.04, 4426.84, 4433.3, 4430.43
4408.93, 4445.29, 4488.72, 4341.53
4469.09, 4481.01, 4515.29, 4458.93
4461.77, 4421.39, 4381.55, 4393.54
4387.62, 4401.52, 4449.04, 4413.67
4489.85, 4312.9, 4372.6, 4328.26
4462.41, 4405.22, 4407.61, 4457.23
4434.14, 4351.9, 4525.37, 4504.79
4442.15, 4422.3, 4440.08, 4434.36
4361.79, 4371.46, 4447.32, 4361.04
4334.41, 4425.54, 4401.47, 4426.72
4472.57, 4369.48, 4372.26, 4366.44
4306.96, 4396.23, 4439.57, 4396.37
4377.96, 4394.32, 4377.01, 4390.72
4416.13, 4366.79, 4319.21, 4314.27
4352.26, 4258.56, 4420.34, 4483.42
4462.38, 4549.33, 4478.74, 4460.97
4466.23, 4484.5, 4572.55, 4590.64
4596.45, 4608.33, 4596.05, 4632.41
4674.22, 4746.74, 4849.53, 4784.7
5019.53, 5091.26, 5151.83, 5181.4
5314.28, 5203.03, 5245, 5198.28
5145.88, 5109.36, 5012.29, 5005.4
4875.99, 4908.6, 4801.17, 4885.07
4840.1, 4760.26, 4683.63, 4609.47
4618.91, 4603.09, 4541.19, 4479.16
4389.51, 4415.63, 4504.85, 4448.54
4480.15, 4559.33, 4540.88, 4614.3
4633.82, 4537.32, 4635.09, 4542.53
4575.55, 4507.42, 4508.69, 4613.42
4506.73, 4578.09, 4484.3, 4537.59
4564.07, 4536.68, 4482.39, 4568.96
4668.08, 4521.39, 4517.87, 4510.96
4454.11, 4508.97, 4475.96, 4570.3
4610.67, 4487.76, 4475.46, 4510.18
4626.76, 4524.6, 4638.02, 4582.23
4573.02, 4489.22, 4556, 4606.4
4594.13, 4655.48, 4631.38, 4672.44
4725.26, 4624.32, 4577.6, 4699.02
4754.2, 4744.55, 4854.31, 4663.41
4934.71, 4906.26, 4824.64, 4921.67
5014.42, 5176.08, 5108.93, 5251.25
5350.79, 5259.3, 5270.46, 5293.89
5396.21, 5415.51, 5660.59, 5640
5661.21, 5715.81, 5533.01, 5311.57
5302.75, 5130.66, 5067.89, 4925.96
5019.86, 4842.37, 4803.41, 4674.36
4713.46, 4758.29, 4514.52, 4397.04
4493.37, 4360.46, 4249.95, 4392.88
4300.77, 4285.19, 4195.37, 4222.06
4182, 4191.38, 4167.07, 4217.51
4177.73, 4108.12, 4217.51, 4151.4
4175.8, 4148.49, 4014.74, 4050.1
4142.2, 4118.33, 4066.09, 4137.52
4143.14, 4128.62, 4062.83, 4152.7
4155.58, 4107.87, 4102.59, 3952.97
4110.53, 4047.51, 4009.71, 3988.67
4064.89, 4082.4, 4062.22, 4011.74
4153.68, 4144.21, 4069.65, 4117.29
4044.16, 4027.6, 3958.35, 3922.6
4096.99, 4083.23, 4114.22, 4094.98
3962.17, 4062.14, 3969, 3945.83
4067.09, 3994.34, 4052.81, 4067.39
4000.59, 4107.02, 4170.12, 4016.28
4083.78, 4108.01, 4067.96, 4013.58
4047.5, 4046.09, 4012.53, 4019.11
3974.76, 3972.64, 3946.32, 4152.79
4028.58, 3987.53, 3936.17, 4013.45
3950.53, 4012.58, 3906.8, 3906.37
3998.63, 4016.41, 3929.95, 3958.97
3980.48, 4000.55, 4020.17, 4023.4
3991.76, 3936.05, 3893.22, 4022.2
3978.9, 4000.08, 4003.27, 4034.46
4120.77, 4081.15, 3996.03, 3923.77
4051.76, 3940.15, 4008.94, 4063.03
4002.3, 4064.18, 3950.15, 4040.84
4013.09, 4112.3, 4030.23, 4055.72
3975.8, 4063.65, 4044.15, 3988.59
4018.79, 4141.89, 3992.1, 3904.6
4138.43, 4046.88, 4056.74, 3974.82
3988.97, 4118.23, 3963.91, 3918.13
3953.91, 4013.44, 4051.08, 4095.36
4022.47, 4106.51, 4004.3, 4009.13
4027.16, 3985.42, 3843.14, 3917.61
3951.95, 3919.96, 3945.03, 3950.06
3932.51, 3868.07, 3877.46, 3818.29
3950.42, 3979.36, 3839.31, 3865.33
3848.04, 3882.61, 3842.43, 3876.34
3806.11, 3888.27, 3870.14, 3832.83
3942.98, 3828.37, 3829.18, 3916.9
3950.33
*END

*EOF