File: experimental_data/220722/s00128_Theta_2-Theta.asc
*TYPE		=  Raw
*CLASS		=  ASCII CLASS
*SAMPLE		=
*COMMENT	=
*FNAME		=  s00128_Theta_2-Theta.asc
*DATE		=  22-Jul-22 10:30

*GROUP_COUNT	=  1
*GONIO		=  SmartLab(In-plane), 0.000000
*ATTACHMENT	=  Z-Phi Stage
*ASC		=  0, 0, 0.000000, 0.000000
*I_MONOCHRO	=  Soller_slit_5.0deg, 0.000000
*FILTER		=  Cu_K-beta
*C_MONOCHRO	=  No_unit, 0.000000
*SLIT_NAME	=  0, Incident slit
*SLIT_NAME	=  1, Receiving slit # 1
*SLIT_NAME	=  2, Receiving slit # 2
*COUNTER	=  HyPix 3000(H), 0
*POS_FORMAT	=  0
*SCAN_AXIS	=  2theta/theta
*MEAS_MODE	=  Continuous Scanning
*TARGET		=  29
*XRAY_CHAR	=  K-ALPHA
*WAVE_LENGTH1	=  1.54059
*WAVE_LENGTH2	=  1.54441
*THICKNESS	=  0, 0.000000
*MU		=  0, 0.000000
*SCAN_MODE	=  2theta/theta
*SPEED_DIM	=  sec./step
*XUNIT		=  deg.
*YUNIT		=  counts
*SCALE_MODE	=  1
*REP_COUNT	=  0
*SE_COUNT	=  0
*STD_MATERIAL	=  Unknown, Unknown, 0.000000, 0.000000, 0.000000, 0.000000, 0.000000, 0.000000
*LATT_CONS	=  0, Unknown, Unknown, 0.000000, 0.000000, 0.000000, 0.000000, 0.000000, 0.000000
*SEC_COUNT	=  1
*TSPEC_SIZE	=  0
*EXTRA_SIZE	=  0
*MEMO		=

*BEGIN
*GROUP		=  0
*START		=  22
*STOP		=  36
*STEP		=  0.01
*OFFSET		=  0.000000
*SPEED		=  0.192275
*SLIT_SPEC	=  0, 1.000deg, 1, 0.000000
*SLIT_SPEC	=  1, 20.000mm, 20, 0.000000
*SLIT_SPEC	=  2, 20.100mm, 20.1, 0.000000
*KV		=  40
*MA		=  44
*LOW		=  0.000000
*HIGH		=  0.000000
*CTEMPER	=  0, 0.000000
*CTEMPER	=  1, 0.000000
*CTEMPER	=  2, 0.000000
*PAREX		=  0, 0.000000
*PAREX		=  1, 0.000000
*PAREX		=  2, 0.000000
*PAREX		=  3, 0.000000
*PAREX		=  4, 0.000000
*PAREX		=  5, 0.000000
*PAREX		=  6, 0.000000
*PAREX		=  7, 0.000000
*PAREX		=  8, 0.000000
*PAREX		=  9, 0.000000
*PAREX		=  10, 0.000000
*PAREX		=  11, 0.000000
*PAREX		=  12, 0.000000
*PAREX		=  13, 0.000000
*PAREX		=  14, 0.000000
*PAREX		=  15, 0.000000
*FULL_SCALE	=  68479.4
*INDEX		=  0, 0, 0
*COUNT		=  1401
9003.17, 8879.57, 8887.19, 8907.95
8926.17, 8803.85, 8987.91, 8726.87
8955.37, 8839.43, 8721.33, 8787.96
8915.7, 8920.86, 8816.3, 8871.33
8971.53, 8991.63, 8769.75, 8783.84
8947.21, 8747.43, 8631.64, 8717.16
8677.15, 8803.71, 8706.91, 8822.74
8867.27, 8768.47, 8547.81, 8734.52
8752.37, 8772.97, 8796.55, 8690.05
8619.92, 8730.15, 8730.39, 8612.77
8672.84, 8786.71, 8818.73, 8866.93
8697, 8819.7, 8576.56, 8696.93
8650.71, 8651.64, 8642.49, 8645.7
8725.07, 8713.45, 8815.13, 8781.22
8884.31, 8647.72, 8674.01, 8687.94
8693.84, 8751.07, 8711.74, 8604.67
8781.61, 8761.66, 8630.4, 8705.98
8602.64, 8625.17, 8440.52, 8314.21
8594.98, 8654.11, 8512.09, 8620.77
8871.65, 8663.96, 8611.5, 8679.35
8656.95, 8551.32, 8589.24, 8617.26
8761.45, 8716.43, 8912.09, 8798.89
8697.99, 8770.89, 8833.82, 8875.85
8885.12, 8897.58, 9088.14, 9006.19
9228.18, 9232.8, 9229.71, 9537.43
9532.02, 9559.49, 9580.29, 9648.83
9885.8, 10102.7, 10141.4, 10512.1
10701.5, 10758.8, 10972.4, 10898.8
10832.8, 10947.9, 10672.6, 10407.9
10384.6, 10156.7, 9930.99, 9567.12
9395.09, 9345.26, 9012.86, 9079.62
8942.34, 8802.62, 8729.74, 8661.14
8768.68, 8629.75, 8561.14, 8605.07
8577.4, 8537.08, 8583.05, 8701.3
8661.74, 8643.34, 8608.75, 8658.23
8795.55, 8675.47, 8786.39, 8754.52
8995.68, 8960.1, 8981.09, 9051.81
9200.07, 9226.43, 9382.72, 9571.79
9596.49, 9683.73, 10003.8, 10090.2
10284.5, 10502.8, 10482.8, 10321.6
10282, 10194.8, 10086.3, 9827.99
9502.1, 9551.22, 9205.76, 9055.21
8906.02, 8882.81, 8711.4, 8702.8
8767.04, 8627.73, 8594.77, 8378.41
8382.71, 8435.56, 8377.9, 8229.49
8401.41, 8384.67, 8230.7, 8386.05
8248.3, 8188.08, 8197.19, 8276.55
8225.5, 8116.49, 8033.79, 8150.34
8176.66, 8118.62, 8188.76, 8206.48
8199.7, 8157.93, 8174.88, 7898.32
8112.97, 8030.43, 8101.38, 8243.02
8152.27, 8140.78, 8151.37, 8165.57
8132.29, 8232.03, 8110, 8204.56
8291.63, 8395.58, 8387.31, 8473.18
8423.09, 8514.76, 8388.7, 8652.05
8530.5, 8649.88, 8651.02, 8659.62
8774.13, 9235.16, 9206.47, 9105.84
9437.71, 9598.54, 9847.29, 10003.9
10156.5, 10275.4, 10582.8, 10635.8
10513.8, 10508.8, 10187.7, 10250.8
10034.8, 9721.02, 9703.42, 9435.4
9176.78, 8851.17, 8828.48, 8483.19
8434.32, 8187.44, 8074.05, 7908.94
8086.21, 7950.38, 7972.48, 7803.76
7894.92, 7878.78, 7820.01, 7733.71
7680.44, 7744.42, 7683.28, 7709.47
7826.9, 7719.92, 7711.88, 7711.32
7723.36, 7789.03, 7587.76, 7620.67
7755.6, 7751.21, 7721.77, 7570.86
7606.03, 7698, 7678.59, 7606.55
7506.03, 7599.17, 7500.85, 7534.99
7653.79, 7611.75, 7517.21, 7519.81
7551.98, 7500.5, 7548.34, 7499.38
7590.84, 7514.09, 7371.19, 7472.54
7569.46, 7438.27, 7413.27, 7313.15
7330.53, 7440.44, 7361.37, 7391.74
7402.98, 7465.01, 7445.9, 7437.95
7333.99, 7393.54, 7332.31, 7428.06
7352.88, 7446.82, 7373.6, 7347.37
7310.13, 7333.93, 7314.72, 7190.81
7425.46, 7473.54, 7464.74, 7454.26
7256.73, 7267.33, 7438.47, 7475.11
7396.32, 7313.45, 7285.48, 7273.65
7336.34, 7286.02, 7320.39, 7351.05
7268.38, 7226.21, 7227.54, 7237.15
7427.78, 7217.97, 7329.14, 7336.35
7246.34, 7313.12, 7131.66, 7320.88
7277.38, 7262.13, 7209.92, 7089.56
7092.8, 7157.77, 7129.86, 7119.05
7327.79, 7170.19, 7225.1, 7124.96
7124.95, 7235.77, 7257.37, 7093.04
7001.79, 7170.59, 7251.4, 7150.08
7205.01, 7017.13, 6997.48, 6945.81
6965.92, 7071.7, 7077.56, 7093.9
7151.81, 7128.51, 7121.47, 7175.51
7137.85, 7073.59, 6925.5, 7003.65
6953.93, 7035.15, 7126.54, 7133.2
7091.35, 6982.02, 6951.36, 7015.58
6933.29, 7009.14, 7004.5, 7113.37
7044.69, 7138.45, 7038.68, 7016.17
6999.22, 7005.89, 7029.51, 7042.74
7026.81, 7123.96, 6917.03, 6941.76
6926.59, 6960.11, 6912.36, 6838.98
6847.54, 6935.7, 7174.67, 6951.63
6968.87, 6929.44, 7029.27, 6982.32
6952.29, 7058.54, 6917.24, 7127.27
6980.13, 6937.36, 7084.42, 7002.62
6913.66, 7029.32, 7082.46, 7021.12
7002.25, 7044.03, 6930.21, 7080.9
7152.61, 7193.42, 7198.91, 7111.23
7110.29, 7223.1, 7231.46, 7110.53
7079.08, 7298.3, 7211.02, 7203.33
7288.35, 7353.13, 7377.54, 7334.8
7466.78, 7465.61, 7504.25, 7520.98
7612.15, 7584.06, 7483.86, 7478.21
7619.03, 7499.42, 7563.51, 7473.26
7436.73, 7341.74, 7296.92, 7359.65
7365.59, 7250.65, 7175.7, 7071.33
7075.15, 7072.84, 7001.29, 6859.98
6818.47, 6923.2, 6820.94, 6789.82
6868.41, 6650.09, 6990.53, 6860.93
6870.93, 6745.04, 6719.42, 6802.36
6730.76, 6697.88, 6574.96, 6734.52
6658.44, 6654.15, 6608.31, 6557.71
6568.94, 6581.82, 6670.14, 6595.2
6481.5, 6543.01, 6546.2, 6637.85
6592.71, 6639.7, 6615.4, 6520.43
6461.99, 6426.78, 6598.99, 6518.13
6448.99, 6633.21, 6407.43, 6384.86
6416.97, 6410.83, 6440.66, 6513.72
6505.56, 6504.54, 6522.29, 6561.39
6396.67, 6345.09, 6539.04, 6305.42
6395.63, 6409.81, 6465.24, 6504
6485.88, 6411.27, 6455.92, 6460.36
6322.16, 6308.61, 6403.68, 6304.6
6378.73, 6269.91, 6299.88, 6359.21
6417.21, 6342.46, 6338.82, 6224.4
6224.98, 6139.44, 6425.08, 6368.98
6318.39, 6451.51, 6361.5, 6322.09
6213.27, 6307.71, 6205.67, 6305.93
6267.56, 6257.13, 6270.59, 6238.11
6210.71, 6331.74, 6266.27, 6250.58
6358.45, 6273.61, 6160.78, 6259.56
6273.38, 6328.97, 6208.11, 6050.11
6158.47, 6302.42, 6236.09, 6185.54
6185.12, 6306.6, 6307.67, 6123.96
6047.67, 6292.63, 6189.71, 6140.43
6173.49, 6166.46, 6057.1, 6177.44
6115.47, 6094.77, 6139.65, 6137.86
6011.71, 6192.48, 6026.52, 5926.48
6152.65, 5903.56, 6103.82, 5997.76
6115.02, 5982.77, 6104.88, 6037.93
6099.98, 6134.78, 6073.99, 6017.96
6097.13, 6116.75, 6080.66, 6114.15
6129.28, 6040.35, 6181.63, 6051.2
6038.5, 6107.76, 6035.01, 6125.31
6032.63, 6053.74, 6002.08, 6039.89
6002.92, 6033.79, 6050.47, 5987.59
5907.99, 5928.53, 6018.07, 6101.53
5915.39, 5899.06, 5994.14, 6025.18
6052.93, 5992.72, 5979.72, 5958.8
6005.67, 6062.84, 6004.83, 6044.79
6010.46, 6025.47, 6125.45, 5950.27
5988.94, 5982.11, 5913.67, 6110.65
5989.03, 6178.73, 6100.67, 6132.55
6215.66, 6078.64, 6146.95, 6189.12
5943.72, 6139.34, 6116.89, 6195.06
6131.58, 6063.72, 6147.77, 6110.65
6086.9, 6098.61, 6190.92, 6188.7
6163.18, 6092.74, 6281.22, 6165.37
6025.62, 6171.02, 6124.8, 6134.67
6147.47, 6128.34, 6145.82, 6013.04
6145.97, 6107.28, 6146.05, 6199.71
6169.75, 6084.15, 6118.41, 6045.12
5956.4, 5974.17, 6008.7, 5977.03
5919.05, 5831.4, 5816.9, 5898.38
5820.69, 5966.76, 5792.56, 5769.98
5745.89, 5746.42, 5810.74, 5733.69
5716.25, 5764.42, 5673.6, 5713.64
5814.24, 5821.74, 5760.25, 5817.61
5721.92, 5711.18, 5718.34, 5585.33
5592.95, 5639.5, 5584.67, 5759.5
5763.04, 5700.84, 5561.69, 5604.57
5618.09, 5687.65, 5550.77, 5542.33
5558.42, 5618.89, 5466.64, 5665.91
5685.01, 5654.11, 5665.59, 5646.14
5613.3, 5575.14, 5693.15, 5540.11
5645.02, 5645.53, 5545.97, 5652.58
5547.81, 5598.91, 5552.08, 5519.86
5490.17, 5575.33, 5683.59, 5567.36
5705.27, 5553.24, 5558.14, 5461.51
5464.21, 5413.06, 5496.66, 5527.58
5464.2, 5599.27, 5488.24, 5612.86
5412.49, 5550.03, 5585.05, 5529.62
5471.83, 5487.14, 5480.23, 5489.92
5564.02, 5576.95, 5441.56, 5467.83
5476.75, 5536.65, 5392.36, 5442.69
5476.53, 5386.04, 5426.81, 5416.16
5451.78, 5443.24, 5461.89, 5452.26
5417.35, 5301.01, 5419.86, 5491.7
5391.65, 5368.6, 5418.17, 5313.27
5439.78, 5378.45, 5380.07, 5368.14
5391.88, 5444.08, 5437.45, 5484.2
5372.36, 5516.51, 5523.54, 5467.5
5364.35, 5362.03, 5458.17, 5530.7
5356.81, 5356.78, 5330.07, 5312.65
5252.4, 5493.97, 5299.26, 5445.17
5444.57, 5415.99, 5470.27, 5390.12
5299.94, 5292.54, 5300.23, 5300.15
5327.47, 5302.34, 5351.01, 5437.18
5270.31, 5256.81, 5350.56, 5298.29
5329.68, 5353.27, 5205.07, 5431.25
5295.34, 5288.63, 5257.16, 5343.43
5406.68, 5335.92, 5294.12, 5273.76
5238.13, 5273.43, 5164.23, 5252.5
5327.83, 5260.43, 5198.35, 5231.24
5374.08, 5283, 5229.48, 5307.41
5256.03, 5303.34, 5258.39, 5134.13
5337.47, 5276.68, 5207.97, 5182.61
5363.99, 5276.45, 5181.71, 5222.66
5135.06, 5314.49, 5154.48, 5219.23
5283.03, 5150.47, 5140.07, 5255.96
5180.34, 5201.45, 5118.51, 5237.71
5181.17, 5185.64, 5198.4, 5210.43
5190.93, 5184.99, 5128.95, 5198.62
5247.79, 5220.55, 5099.99, 5116.02
5119.95, 5115.38, 5182, 5149.03
5170.72, 5105.87, 5053.39, 5083.73
5120.73, 5073.43, 5114.75, 5086.12
5135.64, 5199.79, 5154.37, 5074.54
5174.67, 5076.24, 5051.92, 5107.27
5204.64, 5243.6, 5098.29, 5102.27
5126.93, 5116.16, 5152.09, 5059.13
5032.14, 4997.23, 5069.02, 5101.21
5122.81, 5038.87, 4990.71, 5136.92
5088.52, 5120.99, 5065.82, 5053.88
5061.41, 4970.59, 5134.52, 5085.89
5032.78, 5051.28, 5125.27, 5072.97
5022.44, 5083.99, 5169.18, 5094.52
5002.26, 4968.87, 4942.51, 4976.25
4903.88, 5038.82, 5109.68, 4922.92
4968.47, 4930.73, 4881.3, 5018.13
4975.94, 4986.56, 4968.58, 4962.08
4956.8, 4988.58, 4933.2, 4978.05
4945.39, 5001.99, 4907.87, 4875.97
4960.56, 5023.9, 5064.9, 4967.22
4965.62, 4930.76, 4950.87, 4897.04
4921.69, 4966.95, 4962.59, 4915.05
4960.28, 4869.83, 4843.43, 4844.96
4841.91, 4874.32, 4960.19, 4939.36
4968.13, 4876.29, 4878.53, 4799.9
4863.89, 4846.31, 4865.5, 4810.93
5072.74, 4742.12, 4791.63, 4786.6
4826.01, 4898.58, 5022.46, 4853.94
4797.27, 4835.84, 4885.06, 4899.4
4769.84, 4890.98, 4873.21, 4869.72
4807.72, 4778.5, 4757.98, 4847.74
4779.69, 4773.39, 4724.75, 4790.47
4901.35, 4799.35, 4841.43, 4890.46
4774.46, 4838.56, 4902.76, 4782.42
4836.99, 4792.93, 4885.23, 4870.68
4790, 4950.57, 4738.19, 4876.74
4742.79, 4786.79, 4726.91, 4757.12
4667.9, 4794.51, 4693.65, 4746.99
4731.34, 4761.67, 4677.44, 4807.19
4857.01, 4820.7, 4804.43, 4693.06
4586.6, 4712.45, 4824.13, 4758.71
4805.12, 4787.59, 4698.1, 4765.1
4831.87, 4726.21, 4806.99, 4753.59
4606.11, 4896.21, 4862.28, 4775.15
4718.24, 4725.56, 4645.49, 4683.17
4743.41, 4753.98, 4726.36, 4715.76
4866.3, 4790.33, 4682.89, 4733.15
4777.89, 4733.15, 4769.63, 4677.05
4796.5, 4710.03, 4736.24, 4793.44
4759.37, 4805.6, 4781.75, 4811.79
4771.3, 4830.78, 4707.31, 4789.11
4773.93, 4806.14, 4927.06, 4840.34
4900.34, 4947.32, 5002.97, 5071.65
5014.47, 5155.4, 5074.24, 5220.78
5275.66, 5319.28, 5319.37, 5485.11
5555.46, 5652.21, 5793.03, 5678.78
5605.74, 5352.61, 5383.4, 5407.97
5345, 5339.41, 5257.54, 5231.81
5189.51, 5147.52, 5126.78, 5106.66
4847.87, 4971.66, 4992.48, 4864.71
4909.24, 4856.98, 4885.24, 4910.11
4793.41, 4900.14, 4796.73, 4933.62
4917.76, 4990.12, 4947.09, 4926.68
4778.72, 4920.96, 4910.46, 4966.74
4851.81, 4891.99, 4797.85, 5059.05
5001.97, 4959.72, 4845.22, 4950.28
4938.08, 4921.13, 5024.72, 4962.08
4964.84, 4826.55, 4783.6, 4858.82
4931.17, 4863.41, 4983.92, 4930.5
4984.76, 5041.97, 4962.69, 4971.07
4992.52, 5001.16, 4978.51, 5017.39
5008.37, 5044.87, 5067.25, 4982.26
5101.04, 5051.66, 5072.48, 4980.84
5047.46, 5121.78, 5118.48, 5226.87
5303.15, 5313.92, 5177.46, 5184.34
5452.24, 5525.26, 5478.95, 5652.14
5623.01, 5735.19, 5788.74, 5810.18
5856.18, 6044.62, 6086.33, 6048.44
5949.23, 6075.2, 6088.6, 5860.52
5698.22, 5557.92, 5462.51, 5398.7
5447.87, 5386.4, 5180.73, 4995.11
5057.23, 4904.15, 4897.84, 4695.96
4776.26, 4730.68, 4726.64, 4734.96
4699.67, 4555.73, 4629.78, 4474.03
4457.21, 4513.03, 4410.98, 4453.17
4456.18, 4456.6, 4458.13, 4413.52
4428.53, 4511, 4486.63, 4441.3
4359.85, 4378.59, 4369.01, 4400.37
4289.29, 4376.52, 4290.2, 4403.01
4308.98, 4395.81, 4428.05, 4286.93
4440.54, 4440.86, 4415.57, 4295.45
4440.35, 4390.35, 4245.09, 4276.93
4356.33, 4309.32, 4389.46, 4421.85
4373.47, 4194.06, 4238.78, 4276.55
4388.98, 4344.06, 4367.12, 4272.58
4386.73, 4310.43, 4311.4, 4340.23
4348.67, 4242.99, 4319.04, 4254.71
4195.69, 4286.35, 4364.17, 4373.75
4284.81, 4333.63, 4378.52, 4292.02
4217.63, 4324.22, 4179.67, 4256.62
4221.37, 4291.41, 4181.55, 4308.87
4285.13, 4308.78, 4211.92, 4314.35
4298.95, 4147.69, 4272.41, 4324.44
4265.12, 4262.52, 4286.13, 4349.88
4278.69, 4223.97, 4279.97, 4215.24
4284.51, 4352.93, 4215.78, 4322.66
4213.22, 4140.22, 4319.94, 4287.03
4230.34, 4251.81, 4318.95, 4230.74
4358.52, 4286.83, 4348.99, 4312.35
4317.74, 4365.55, 4388.3, 4392.25
4348.66, 4347.61, 4357.67, 4318.41
4227.23, 4339.77, 4382.01, 4231.89
4362.09, 4276.91, 4195.5, 4341.03
4367.23, 4307.18, 4212.83, 4298.14
4355.32, 4252.75, 4262.53, 4358.44
4281.51, 4258.94, 4138.34, 4315.55
4229.6, 4284.3, 4296.62, 4269.65
4319.5, 4305.09, 4246.37, 4123.85
4106, 4186.62, 4196.19, 4172.66
4106.33, 4215.37, 4172.46, 4076.75
4050.15, 4131, 4143.2, 4171.26
4064.09, 4185.95, 4067.5, 4095.82
4126.13, 4091.03, 4069.68, 4082.85
4123.5, 4023.07, 4089.04, 4041.48
3990.72
*END

*EOF